onset	duration	offset	trial	item	RT	response
52.52760000000001	4.181788599816997	56.709388599817004	1	att	1.17928729997948	7.0
56.7103799999155	3.1262097998988025	59.836589799814305	1	past	1.20025280001573	5.0
59.838023099901505	3.938340099994093	63.7763631998956	1	fut	3.22329310001805	4.0
63.77946159997241	3.2822270998731966	67.0616886998456	1	self	1.07152480003424	4.0
67.06263109980371	1.5474769000429944	68.6101079998467	1	ppl	0.615794400218874	8.0
68.6108020000089	2.2917799998540005	70.9025819998629	1	arou	1.13863529986702	9.0
70.90327219999611	2.4864532998763877	73.3897254998725	1	aff	0.928963699843735	3.0
73.3907525000091	3.0220180000179084	76.41277050002701	1	eng	1.91867589997128	4.0
76.41373400002941	1.6143941998015947	78.028128199831	1	mvmt	0.679011199856177	6.0
78.029086999914	2.6708871999289983	80.699974199843	1	delib	1.51291029993445	1.0
80.70083630000461	1.6003590999170996	82.30119539992171	1	image	0.961709199938923	5.0
82.3018560999468	3.7869144000578956	86.0887705000047	1	ling	0.927814400056377	8.0
86.0900304998197	3.0974926000930054	89.18752309991271	1	conf	1.71306199999526	6.0
140.0626713999937	2.511770099867988	142.57444149986168	2	att	1.10824199998751	1.0
142.57522069997373	1.929410699987983	144.5046313999617	2	past	0.679114100057632	1.0
144.50560879995368	1.3738813998640182	145.8794901998177	2	fut	0.578574100043625	1.0
145.8801280000177	1.982430099975005	147.8625580999927	2	self	0.818556799786165	9.0
147.86354479993872	2.0967872999609938	149.96033209989972	2	ppl	1.09484889986925	3.0
149.9608907998467	2.3561100000520128	152.31700079989872	2	arou	1.5480846001301	9.0
152.3199921998587	1.8160596999809968	154.13605189983969	2	aff	0.964027400128543	1.0
154.1368748998197	2.8952006001489963	157.0320754999687	2	eng	1.10683550010435	9.0
157.03296149996368	2.226201999932016	159.2591634998957	2	mvmt	1.10173669992946	1.0
159.2608890999967	2.2374595999719986	161.4983486999687	2	delib	1.12739979987964	1.0
161.4991142999777	2.5727563998659946	164.07187069984369	2	image	1.34541910002008	9.0
164.0728934999487	1.3193339998829856	165.39222749983168	2	ling	0.687732399906963	6.0
165.3933127998307	1.8302861000410076	167.22359889987172	2	conf	0.658562600146979	9.0
224.06701009985272	2.2689571001099864	226.3359671999627	3	att	1.14975660014898	1.0
226.33685519997272	2.1496623000130057	228.48651749998572	3	past	0.96920849988237	1.0
228.4875321000277	1.363312399946011	229.8508444999737	3	fut	0.461484599858522	8.0
229.8519072000327	2.013329299866001	231.8652364998987	3	self	0.859235299983993	8.0
231.86597109990373	1.0929191999609884	232.95889029986472	3	ppl	0.704104500124231	6.0
232.95956860002372	1.6710424998310032	234.63061109985472	3	arou	0.819161499850452	9.0
234.6315447998627	1.6087611000990023	236.2403058999617	3	aff	0.736433299956843	1.0
236.24124529989672	1.9335582999050018	238.17480359980172	3	eng	1.10283420002088	8.0
238.1755209000247	2.247248299885001	240.4227691999097	3	mvmt	0.718478399794549	7.0
240.4250524999507	2.6338148000649824	243.0588673000157	3	delib	1.09749159985222	2.0
243.0597986000057	1.7999266998369876	244.8597252998427	3	image	0.934225499862805	9.0
244.86038259984167	1.21337780007201	246.07376039991368	3	ling	0.495063500013202	8.0
246.07473830002567	1.6690609999930075	247.74379930001868	3	conf	0.783587099984288	9.0
301.6647303999327	5.5889332999939825	307.2536636999267	4	att	3.02646060008556	4.0
307.2536797999337	1.574951499932979	308.8286312998667	4	past	0.678852299926803	1.0
308.8286564998257	1.214048400056015	310.0427048998817	4	fut	0.49727930012159	2.0
310.0427235000227	1.7222974998879863	311.7650209999107	4	self	0.920874199829996	8.0
311.7650366999137	1.562382099916988	313.3274187998307	4	ppl	0.743300799978897	3.0
313.3274343999497	1.957846299977973	315.2852806999277	4	arou	1.06658579991199	9.0
315.2852971999367	1.784295399906	317.0695925998427	4	aff	0.67763529997319	1.0
317.0696092998537	1.9628107000609702	319.0324199999147	4	eng	0.617055400041863	8.0
319.0324446999867	1.6920806998380158	320.7245253998247	4	mvmt	0.699842900037766	6.0
320.7245407999427	1.8487970000130076	322.5733377999557	4	delib	0.951495700050145	1.0
322.5733554999737	1.7580822999590282	324.3314377999327	4	image	0.969058000016958	8.0
324.3314556999527	1.0089590998829863	325.3404147998357	4	ling	0.46338009997271	6.0
325.3404326998557	1.4410222000440172	326.7814548998997	4	conf	0.63551350007765	9.0
386.6674510998117	2.9261321001679903	389.59358319997966	5	att	1.08030490018427	7.0
389.5936037000197	3.1591295998080113	392.7527332998277	5	past	0.489502599928528	3.0
392.75275249997367	0.8865267999940443	393.6392792999677	5	fut	0.313606699928641	7.0
393.6392958998607	1.8309665000999757	395.4702623999607	5	self	1.15701450011693	7.0
395.4702770999557	1.0879434999080217	396.5582205998637	5	ppl	0.459523200057447	7.0
396.5582331999597	2.206500899977982	398.7647340999377	5	arou	1.15358819998801	9.0
398.7647539999727	2.7519045998349725	401.51665859980767	5	aff	1.39504819991998	5.0
401.5166735999217	2.383170499931964	403.8998440998537	5	eng	1.7522565999534	7.0
403.8998610999827	1.851428299910026	405.7512893998927	5	mvmt	0.785031500039622	7.0
405.7513070000267	1.7930967998689766	407.5444037998957	5	delib	1.03366019995883	2.0
407.5444235998137	1.9752417001869844	409.51966530000067	5	image	0.890522200148553	7.0
409.5196794998757	0.995506700128999	410.5151862000047	5	ling	0.407329299952835	7.0
410.5151986999827	1.8298147998289664	412.34501349981167	5	conf	0.733329799957573	9.0
470.2690720999077	2.104086100123993	472.3731582000317	6	att	0.97701029991731	1.0
472.3731785999537	1.5145459999329773	473.88772459988667	6	past	0.666416499996558	1.0
473.8877460999347	1.0855227999849717	474.9732688999197	6	fut	0.317327700089663	1.0
474.9732888998397	1.8835326000109944	476.8568214998507	6	self	1.02847110014409	9.0
476.8568369998527	2.6632630999660023	479.5201000998187	6	ppl	1.50595830008388	4.0
479.5201164999437	1.8703467999590089	481.3904632999027	6	arou	1.12160969991237	9.0
481.39047899990567	1.730371899903048	483.1208508998087	6	aff	0.815490300068632	3.0
483.1208693998327	1.9080737000329577	485.02894309986567	6	eng	1.25665660016239	8.0
485.0289598999937	1.5630879998209934	486.5920478998147	6	mvmt	0.738429399905726	6.0
486.5920711998757	1.5316860999449773	488.1237572998207	6	delib	0.708881200058386	1.0
488.1237750999557	1.8282542999369866	489.9520293998927	6	image	1.16419989988208	8.0
489.9520454000147	1.1453856998119818	491.0974310998267	6	ling	0.492561599938199	6.0
491.0974471998327	2.5183023000139997	493.6157494998467	6	conf	1.71658570016734	9.0
