onset	duration	cue	constant1	timestamp	stimulus_coherence	response_time	response	constant2
20.730254724388942	0.8251772001385689	2	49	1498191.069	81.25	0.9153438999783248	2	0
21.55543192452751	0.8243660998996347	2	49	1498191.557	75	0.5786438998766243	1	0
22.379798024427146	0.8247078999411315	2	49	1498192.799	75	0.9963132999837399	2	0
23.204505924368277	0.8217498001176864	2	49	1498193.463	93.75	0.8356135999783874	2	0
24.026255724485964	0.8119162998627871	2	49	1498194.059	81.25	0.6098316998686641	1	0
24.83817202434875	0.8159185000695288	2	49	1498194.687	56.25	0.42517790012061596	1	0
25.65409052441828	0.8389910999685526	2	49	1498196.032	81.25	0.9541857000440359	2	0
26.493081624386832	0.8137469000648707	2	49	1498196.62	93.75	0.7039738001767546	1	0
27.306828524451703	0.8133372000884265	1	49	1498197.251	68.75	0.5212028	1	0
28.12016572454013	0.8113404999021441	2	49	1498198.006	62.5	0.4625332998111844	1	0
28.931506224442273	0.8197284999769181	2	49	1498199.42	62.5	1.0652606000658125	2	0
29.75123472441919	0.8145566000603139	2	49	1498200.393	43.75	1.218392200069502	2	0
30.565791324479505	0.8182916999794543	2	49	1498201.306	31.25	1.316740500042215	2	0
31.38408302445896	0.8083114000037313	1	0	0	0	0	0	0
32.19239442446269	0.8151960000395775	2	49	1498202.102	68.75	0.48589459992945194	1	0
33.00759042450227	0.8126399999018759	2	49	1498202.905	62.5	0.47392409993335605	1	0
33.820230424404144	0.8119028999935836	2	49	1498203.663	56.25	0.4191998	1	0
34.63213332439773	0.8132846001535654	1	0	0	0	0	0	0
35.44541792455129	0.8106350000016391	2	49	1498205.416	75	0.5468248999677598	1	0
36.25605292455293	0.8139887999277562	2	49	1498206.47	93.75	0.7906163	2	0
37.07004172448069	0.8177648	2	49	1498207.201	93.75	0.7080169999971986	1	0
37.88780652	0.819476	2	49	1498207.975	87.5	0.6638499998953193	1	0
38.70728252455592	0.8202904998324811	2	49	1498208.928	93.75	0.7976943999528885	2	0
39.52757302	0.8198210999835283	2	49	1498209.806	87.5	0.8547454001381993	2	0
40.34739412437193	0.8149852000642568	1	0	0	0	0	0	0
41.16237932443619	0.8160645000170916	1	49	1498211.089	68.75	0.5034169999416918	1	0
41.97844382445328	0.8138780000153929	2	49	1498211.914	68.75	0.5125403	1	0
42.79232182446867	0.8201482999138534	1	49	1498212.827	81.25	0.6113752000965178	1	0
43.612470124382526	0.8104197001084685	2	49	1498213.982	75	0.9464299001265317	2	0
44.422889824490994	0.8181559999939054	2	49	1498215.061	43.75	1.2149684000760317	2	0
45.24104582	0.8189872000366449	2	49	1498215.592	81.25	0.9278740999288857	2	0
46.060033024521545	0.8198104000184685	2	49	1498216.182	93.75	0.6984174000099301	1	0
46.87984342454001	0.8116204999387264	2	49	1498216.859	75	0.5554574	1	0
47.69146392447874	0.8132972999010235	2	49	1498217.763	87.5	0.6483771000057459	1	0
48.50476122437976	0.8236410000827163	2	49	1498218.605	87.5	0.6772798001766205	1	0
49.32840222446248	0.8141003	1	49	1498219.427	87.5	0.6756514	1	0
50.142502524424344	0.8182767999824136	2	49	1498220.249	87.5	0.6835084001068026	1	0
50.96077932440676	0.8182954001240432	2	49	1498220.931	75	0.5469462999608368	1	0
51.77907472	0.8147239999379963	2	49	1498221.76	75	0.5571312999818474	1	0
52.59379872	0.8227028	2	49	1498222.532	68.75	0.5153723	1	0
53.416501524392515	0.8130711000412703	2	49	1498223.488	87.5	0.6477661000099033	1	0
54.229572624433786	0.8159668000880629	2	49	1498224.786	56.25	1.1334180999547243	2	0
55.04553942452185	0.8104901998303831	2	49	1498225.516	62.5	1.046883799834177	2	0
55.85602962435223	0.8275499001611024	2	49	1498226.548	37.5	1.2690142001956701	2	0
56.683579524513334	0.8236449998803437	2	49	1498227.097	75	0.9904493000358343	2	0
57.50722452439368	0.8298502000980079	2	49	1498227.758	93.75	0.8273658000398427	2	0
58.337074724491686	0.8278437000699341	2	49	1498228.401	87.5	0.6410898000467569	1	0
59.16491842456162	0.8309329999610782	2	49	1498229.849	43.75	1.2604739000089467	2	0
59.99585142	0.8269688000436872	1	0	0	0	0	0	0
60.822820224566385	0.8253143997862935	2	49	1498231.003	100	0.7565446998924017	1	0
61.64813462435268	0.8296558000147343	1	49	1498232.078	68.75	1.006359999999404	2	0
62.47779042436741	0.8291150000877678	2	49	1498233.165	43.75	1.263620400102809	2	0
63.30690542445518	0.8330995000433177	2	0	0	0	0	0	0
64.14000492	0.8285083998925984	2	49	1498234.134	75	0.5704073	1	0
64.96851332	0.8303191000595689	2	49	1498234.831	56.25	0.4388586999848485	1	0
65.79883242445067	0.8333713000174612	2	49	1498235.884	87.5	0.6615816000849009	1	0
66.63220372446813	0.8313335001002997	2	49	1498237.051	75	0.9953346000984311	2	0
67.46353722456843	0.8319962	2	49	1498237.751	87.5	0.8639058999251574	2	0
68.29553342447616	0.8332604998722672	2	49	1498238.463	93.75	0.7439556000754237	1	0
69.12879392434843	0.8310044000390917	2	49	1498239.315	100	0.7628415001090616	1	0
69.95979832438752	0.8289042999967933	2	49	1498240.02	81.25	0.6366966001223773	1	0
70.78870262438431	0.8317582001909614	2	49	1498240.758	75	0.5457751001231372	1	0
71.62046082457528	0.8339182999916375	2	49	1498241.729	87.5	0.6853196998126805	1	0
72.45437912456691	0.8307581997942179	1	49	1498242.412	68.75	0.5342175997793674	1	0
73.28513732436113	0.8335786000825465	1	49	1498243.238	68.75	0.5295522001106292	1	0
74.11871592444368	0.8292662	2	49	1498244.483	81.25	0.9411945999599993	2	0
74.94798212	0.8288561999797821	2	49	1498245.039	87.5	0.6678342998493463	1	0
75.77683832449839	0.8252973000053316	2	49	1498246.279	62.5	1.0792481999378651	2	0
76.60213562450372	0.8298009000718594	2	49	1498247	75	0.9748396999202669	2	0
77.43193652457558	0.8133918999228626	2	49	1498247.703	87.5	0.8479242	2	0
78.24532842449844	0.8238140000030398	2	49	1498248.653	75	0.9846701000351459	2	0
79.06914242450148	0.8096594999078661	2	49	1498249.256	100	0.7637509999331087	1	0
79.87880192440934	0.8172574	2	49	1498249.858	75	0.5557659999467432	1	0
80.69605932454579	0.8137569	1	49	1498250.702	81.25	0.5829474998172373	1	0
81.50981622445397	0.8164127001073211	2	49	1498251.666	93.75	0.7331161	1	0
82.32622892456129	0.8063458998221904	2	49	1498252.528	93.75	0.7786245997995138	2	0
83.13257482438348	0.8155341001693159	1	49	1498253.523	75	0.9674470999743789	2	0
83.94810892	0.8143646998796612	2	0	0	0	0	0	0
84.76247362443246	0.8179890001192689	2	49	1498254.902	93.75	0.7165972001384944	1	0
85.58046262455173	0.8145955000072718	2	49	1498255.645	87.5	0.6414629998616874	1	0
86.39505812	0.8226877998095006	2	49	1498256.476	87.5	0.6575557	1	0
87.21774592	0.8174819000996649	2	49	1498257.185	75	0.5437875	1	0
88.03522782446817	0.8187263000290841	2	49	1498257.961	68.75	0.5028462999034673	1	0
88.85395412449725	0.8140769000165164	2	49	1498258.951	87.5	0.6733480000402778	1	0
89.66803102451377	0.8200987000018358	2	49	1498259.581	68.75	0.48929929989390075	1	0
90.48812972	0.8175514000467956	2	49	1498260.489	75	0.5772957999724895	1	0
91.30568112	0.8124912998173386	2	49	1498261.717	68.75	0.9884951999410987	2	0
92.11817242437974	0.8100609	2	49	1498262.426	81.25	0.8849790000822395	2	0
92.92823332455009	0.8155	1	49	1498263.131	100	0.7790376998018473	1	0
93.74373332457617	0.8215932999737561	2	49	1498263.813	87.5	0.6464032998774201	1	0
94.56532662454993	0.8167820000089705	2	49	1498264.746	100	0.7568845998030156	1	0
95.38210862	0.8305907999165356	2	49	1498265.411	81.25	0.6060569998808205	1	0
96.21269942447543	0.8143533999100327	2	49	1498266.71	62.5	1.0737081000115722	2	0
97.02705282438546	0.8117641001008451	2	49	1498267.625	50	1.174548099981621	2	0
97.83881692448631	0.8101299998816103	2	49	1498268.375	56.25	1.1131788999773562	2	0
98.64894692436792	0.8224739001598209	2	49	1498268.939	87.5	0.8667884001042694	2	0
99.47142082452774	0.8109023999422789	2	49	1498269.586	93.75	0.6913642999716103	1	0
100.28232322447002	0.8168635000474751	2	49	1498270.805	56.25	1.0991273000836372	2	0
101.0991867245175	0.8122264000121504	2	49	1498271.248	93.75	0.7252934998832643	1	0
101.91141312452964	0.8134877998381853	2	49	1498271.89	75	0.5550916998181492	1	0
102.72490092436783	0.8157854001037776	2	49	1498272.542	56.25	0.3934834	1	0
103.54068632447161	0.8183106000069529	2	49	1498273.254	43.75	0.28986619994975626	1	0
104.35899692447856	0.8178646999876946	2	49	1498274.189	56.25	0.40663790004327893	1	0
105.17686162446626	0.8075761	2	49	1498275.171	75	0.5712776000145823	1	0
105.9844377245754	0.8187057999894023	2	49	1498275.869	62.5	0.4614453997928649	1	0
106.8031435245648	0.8120870999991894	2	49	1498276.548	43.75	0.3215563998091966	1	0
107.61523062456399	0.8159367998596281	2	49	1498278.279	43.75	1.2404214998241514	2	0
108.43116742442362	0.8211540000047535	2	0	0	0	0	0	0
109.25232142442837	0.8139132999349385	2	49	1498279.255	75	0.5793977	1	0
110.06623472436331	0.813427	2	49	1498280.093	81.25	0.6036998	1	0
110.87966172443703	0.8185239001177251	2	49	1498280.843	75	0.5402279999107122	1	0
111.69818562455475	0.8161449998151511	1	49	1498281.586	62.5	0.4647461	1	0
112.5143306243699	0.8167737000621855	2	49	1498282.57	81.25	0.6319515001960099	1	0
113.33110432443209	0.8244064999744296	2	49	1498283.744	75	0.9899021999444813	2	0
114.15551082440652	0.8165873000398278	2	49	1498284.403	93.75	0.8242747001349926	2	0
114.97209812444635	0.8110181000083685	2	49	1498285.019	81.25	0.6239930000156164	1	0
115.78311622445472	0.8130701999180019	1	49	1498285.863	87.5	0.6564406999386847	1	0
116.59618642437272	0.8180794999934733	2	49	1498286.605	81.25	0.5857239000033587	1	0
117.41426592436619	0.8136434000916779	2	49	1498287.379	75	0.5417453001718968	1	0
118.22790932445787	0.8103275001049042	2	49	1498288.165	68.75	0.5141102001070976	1	0
119.03823682456277	0.8203002999071032	2	49	1498289.449	75	0.9878184997942299	2	0
119.85853712446988	0.8154655999969691	2	49	1498290.116	93.75	0.8344531001057476	2	0
120.67400272446685	0.8203966000583023	2	49	1498291.126	68.75	1.0291651000734419	2	0
121.49439932452515	0.8160256999544799	2	49	1498291.641	93.75	0.7229475998319685	1	0
122.31042502447963	0.8126491999719292	2	49	1498292.184	62.5	0.44990139990113676	1	0
123.12307422445156	0.8182373000308871	2	49	1498293.146	81.25	0.6000300000887364	1	0
123.94131152448244	0.8177193999290466	2	49	1498294.13	100	0.7658778000622988	1	0
124.75903092441149	0.8169158000964671	2	49	1498294.816	87.5	0.6341122000012547	1	0
125.57594672450796	0.8103781999088824	2	49	1498295.799	93.75	0.7995408999267966	2	0
126.38632492441684	0.8197212000377476	2	49	1498296.211	56.25	0.4010435	1	0
127.20604612445459	0.8135343999601901	2	49	1498297.633	68.75	1.0040678000077605	2	0
128.01958052441478	0.8187665001023561	1	0	0	0	0	0	0
128.83834702451713	0.8148117000237107	2	49	1498298.927	87.5	0.6649964998941869	1	0
129.65315872454084	0.8187676998786628	2	49	1498299.726	87.5	0.6492378	1	0
130.4719264244195	0.8187407001387328	1	49	1498300.406	68.75	0.5104110999964178	1	0
131.29066712455824	0.8196617998182774	2	49	1498301.612	81.25	0.8978185998275876	2	0
132.11032892437652	0.8180337999947369	2	49	1498302.313	100	0.7793068001046777	1	0
132.92836272437125	0.8106200001202524	2	49	1498303.215	87.5	0.8630254	2	0
133.7389827244915	0.8112500999122858	2	49	1498304.264	56.25	1.1015836000442505	2	0
134.5502328244038	0.8206323001068085	1	0	0	0	0	0	0
135.3708651245106	0.8111641998402774	2	49	1498305.238	62.5	0.4440227998420596	1	0
136.18202932435088	0.8150051000993699	2	49	1498306.098	68.75	0.49218840012326837	1	0
136.99703442445025	0.8196910999249667	2	49	1498307.18	100	0.7595899000298232	1	0
137.81672552437522	0.8129445	2	49	1498308.275	68.75	1.0349018000997603	2	0
138.6296700243838	0.8181133000180125	2	49	1498309.056	68.75	1.0029240001458675	2	0
139.44778332440183	0.8134758	2	49	1498309.757	87.5	0.8860615000594407	2	0
140.26125912438147	0.8182306999806315	2	49	1498310.645	75	0.9605409000068903	2	0
141.0794898243621	0.8163379000034183	1	49	1498311.387	87.5	0.8842890001833439	2	0
141.89582772436552	0.8184042000211775	1	49	1498311.901	75	0.5820440000388771	1	0
142.7142319243867	0.8184613999910653	2	49	1498312.756	81.25	0.6186458000447601	1	0
143.53269332437776	0.8124638001900166	2	49	1498313.668	93.75	0.7120807999745011	1	0
144.34515712456778	0.8141795999836177	2	49	1498314.563	93.75	0.7946575998794287	2	0
145.1593367245514	0.8149635000154376	2	49	1498315.303	93.75	0.7203831998631358	1	0
145.97430022456683	0.8178119999356568	2	49	1498316.341	81.25	0.9434663997963071	2	0
146.7921122245025	0.8152257	1	0	0	0	0	0	0
147.60733792441897	0.8164482000283897	2	49	1498317.7	87.5	0.6698235999792814	1	0
148.42378612444736	0.8198323000688106	2	49	1498318.772	81.25	0.9252768000587821	2	0
149.24361842451617	0.8127331999130547	2	49	1498319.604	75	0.9373160998802632	2	0
150.05635162442923	0.8152574999257922	2	49	1498320.81	31.25	1.3307429000269622	2	0
150.87160912435502	0.8239687001332641	1	0	0	0	0	0	0
151.69557782448828	0.8173678000457585	2	49	1498321.728	81.25	0.6094015000853688	1	0
152.51294562453404	0.8111278999131173	2	49	1498322.92	68.75	0.9840017	2	0
153.32407352444716	0.8130387999117374	2	49	1498323.712	75	0.9645742001011968	2	0
154.1371123243589	0.8166285001207143	2	49	1498324.547	75	0.9865897002164274	2	0
154.9537408244796	0.8182722	1	49	1498325.28	81.25	0.9033270999789238	2	0
155.772013	0.8130825001280755	2	49	1498325.929	100	0.7341617001220584	1	0
156.58509552455507	0.8173432	1	49	1498326.62	81.25	0.6113475000020117	1	0
157.4024387244135	0.8215820000041276	1	49	1498328.197	25	1.370844200020656	2	0
158.22402072441764	0.8161331000737846	2	49	1498328.734	62.5	1.0862130001187325	2	0
159.04015382449143	0.8092694999650121	2	49	1498329.415	75	0.9520163000561297	2	0
159.84942332445644	0.8125956999137998	1	0	0	0	0	0	0
160.66201902437024	0.8218727000057697	2	49	1498330.979	81.25	0.8934051000978798	2	0
161.4838917	0.8156995000317693	2	49	1498332.118	43.75	1.2103526000864804	2	0
162.29959122440778	0.8153185001574457	2	49	1498332.784	62.5	1.060796899953857	2	0
163.11490972456522	0.8106541999150068	2	49	1498333.601	62.5	1.0629714999813586	2	0
163.92556392448023	0.8231657000724226	2	49	1498334.277	81.25	0.9280375998932868	2	0
164.74872962455265	0.8168081999756396	2	49	1498335.011	87.5	0.8387327999807894	2	0
165.5655378245283	0.8176420999225229	2	49	1498335.669	87.5	0.6798727000132203	1	0
166.38317992445081	0.8198780999518931	1	49	1498336.361	75	0.5544696999713778	1	0
167.2030580244027	0.8116455001290888	2	49	1498337.676	62.5	1.0496580000035465	2	0
168.0147035245318	0.8125763998832554	2	49	1498338.568	56.25	1.1303165999706835	2	0
168.82727992441505	0.8187329999636859	2	49	1498339.246	68.75	0.9952477000188082	2	0
169.64601292437874	0.8141813999973238	1	49	1498339.864	93.75	0.7949672001414001	2	0
170.46019432437606	0.8169230001512915	2	49	1498341.204	31.25	1.320439700037241	2	0
171.27711732452735	0.8155415998771787	2	49	1498341.77	62.5	1.0695890998467803	2	0
172.09265892440453	0.8161892001517117	2	49	1498342.367	87.5	0.8511557001620531	2	0
172.90884812455624	0.8153363999444991	2	49	1498342.948	81.25	0.6158923998009413	1	0
173.72418452450074	0.8167307998519391	2	49	1498343.716	75	0.5688110999763012	1	0
174.54091532435268	0.8158274001907557	1	49	1498344.712	100	0.7478589999955148	1	0
175.35674272454344	0.8223810999188572	2	49	1498345.795	68.75	1.0146994998212904	2	0
176.1791238244623	0.8166590998880565	2	0	0	0	0	0	0
176.99578292435035	0.8162140001077205	2	49	1498347.326	81.25	0.9071871000342071	2	0
177.81199692445807	0.8117396999150515	2	49	1498347.964	93.75	0.7287932001054287	1	0
178.62373662437312	0.8155616000294685	2	49	1498349.211	50	1.1639588000252843	2	0
179.4392982244026	0.8176867000292987	2	49	1498349.902	68.75	1.039591700071469	2	0
180.2569849244319	0.8117863999214023	2	49	1498350.687	68.75	1.006959700025618	2	0
181.0687713243533	0.8184355001430959	2	49	1498351.522	68.75	1.0302953000646085	2	0
181.8872068244964	0.8135512999724597	2	49	1498352.283	75	0.9727443000301719	2	0
182.70075812446885	0.8197149999905378	2	49	1498352.983	87.5	0.8585828999057412	2	0
183.5204731244594	0.8135172999463975	2	0	0	0	0	0	0
184.33399042440578	0.8167137999553233	2	49	1498354.517	100	0.7600797000341117	1	0
185.1507042243611	0.8200419000349939	2	49	1498355.384	93.75	0.8104414001572877	2	0
185.9707461243961	0.8136861000675708	2	0	0	0	0	0	0
186.78443222446367	0.8169291999656707	2	49	1498356.885	87.5	0.6776461999397725	1	0
187.60136142442934	0.8230067000258714	1	0	0	0	0	0	0
188.4243681244552	0.8156689999159425	2	49	1498358.598	100	0.7507579999510199	1	0
189.24003712437116	0.8158115001861006	2	49	1498359.612	75	0.9489934002049267	2	0
190.05584862455726	0.8085927998181432	2	49	1498360.38	81.25	0.9006024999544024	2	0
190.8644414243754	0.8200691000092775	2	49	1498361.174	87.5	0.8867232000920922	2	0
191.68451052438468	0.8108437000773847	1	0	0	0	0	0	0
192.49535422446206	0.8101413000840694	2	49	1498362.783	87.5	0.8642027999740094	2	0
193.30549552454613	0.8232527999207377	2	49	1498363.585	87.5	0.8558073	2	0
194.12874832446687	0.8170439000241458	2	49	1498364.597	68.75	1.0445904000662267	2	0
194.94579222449102	0.8141419999301434	2	49	1498365.34	75	0.9708233000710607	2	0
195.75993422442116	0.8155420001130551	2	49	1498366.135	75	0.9516714001074433	2	0
196.5754762245342	0.8168333999346942	1	49	1498367.011	68.75	1.0119513999670744	2	0
197.3923096244689	0.8261120999231935	2	49	1498367.727	81.25	0.9111758999060839	2	0
198.2184217243921	0.8338632001541555	2	49	1498368.709	62.5	1.0669613999780267	2	0
199.05228492454626	0.8333662999793887	2	49	1498369.495	68.75	1.0191295999102294	2	0
199.88565122452565	0.8335263000335544	2	49	1498370.412	62.5	1.1029111999087036	2	0
200.7191775245592	0.8343924998771399	2	0	0	0	0	0	0
201.55357002443634	0.8312528000678867	2	49	1498371.509	68.75	0.5319616999477148	1	0
202.38482282450423	0.8295982000418007	2	49	1498372.461	87.5	0.6526599999051541	1	0
203.21442102454603	0.8315251998137683	2	49	1498373.339	93.75	0.7011929999571294	1	0
204.0459462243598	0.8315952001139522	2	49	1498374.476	68.75	1.0067173	2	0
204.87754142447375	0.8242216	2	49	1498375.349	68.75	1.0480682998895645	2	0
205.70176302455366	0.8315550999250263	2	49	1498376.112	75	0.9868377	2	0
206.53331812447868	0.8286023000255227	2	49	1498377.202	43.75	1.245341399917379	2	0
207.3619204245042	0.8319589998573065	2	0	0	0	0	0	0
208.1938794243615	0.8318857001140714	2	49	1498378.143	68.75	0.5261051000561565	1	0
209.02576512447558	0.8317132999654859	2	49	1498378.881	56.25	0.43197300005704165	1	0
209.85747842444107	0.8317231999244541	2	49	1498379.83	75	0.5492682999465615	1	0
210.68920162436552	0.8324608001857996	1	49	1498381.428	37.5	1.3155426001176238	2	0
211.52166242455132	0.8318397998809814	1	49	1498381.755	93.75	0.8103968999348581	2	0
212.3535022244323	0.8324176999740303	2	49	1498382.249	62.5	0.47226940002292395	1	0
213.18591992440633	0.8319684001617134	2	49	1498383.53	81.25	0.9208947999868542	2	0
214.01788832456805	0.8357922	2	49	1498384.299	87.5	0.8579917999450117	2	0
214.8536805245094	0.8349733999930322	2	49	1498385.135	87.5	0.8584288998972625	2	0
215.68865392450243	0.8199845999479294	2	49	1498386.175	62.5	1.0627279998734593	2	0
216.50863852445036	0.8131085000932217	2	49	1498386.803	87.5	0.8715220000594854	2	0
217.32174702454358	0.8151373998261988	2	49	1498387.602	87.5	0.8567575998604298	2	0
218.13688442436978	0.8231073000933975	2	49	1498388.431	87.5	0.8712316	2	0
218.95999172446318	0.8088837000541389	2	49	1498389.26	87.5	0.8769688000902534	2	0
219.76887542451732	0.8193146	2	49	1498390.23	68.75	1.0374032000545412	2	0
220.5881900244858	0.8141369998920709	2	49	1498390.757	100	0.7459537999238819	1	0
221.40232702437788	0.8087122000288218	2	49	1498391.404	81.25	0.5787426000460982	1	0
222.2110392244067	0.8147400000598282	2	49	1498392.392	100	0.7579812000039965	1	0
223.02577922446653	0.8114185999147594	2	49	1498393.37	81.25	0.9204204000998288	2	0
223.8371978243813	0.8201075000688434	2	49	1498394.162	81.25	0.9019895000383258	2	0
224.65730532445014	0.8192058000713587	2	49	1498394.804	93.75	0.7230161000043154	1	0
225.4765111245215	0.8124752999283373	2	49	1498395.469	75	0.5691825000103563	1	0
226.28898642444983	0.8153456000145525	2	49	1498396.779	62.5	1.0666209000628442	2	0
227.10433202446438	0.8117098000366241	2	0	0	0	0	0	0
227.9160418	0.8120657000690699	2	49	1498397.817	68.75	0.47726859990507364	1	0
228.72810752457008	0.8171939000021666	2	49	1498398.442	43.75	0.2901144998613745	1	0
229.54530142457224	0.8180191998835653	2	49	1498399.371	56.25	0.40212199999950826	1	0
230.3633206244558	0.8222352000884712	2	49	1498400.286	68.75	0.4992490999866277	1	0
231.18555582454428	0.8137846000026911	2	49	1498401.214	81.25	0.6053034998476505	1	0
231.99934042454697	0.8148610999342054	2	49	1498402.341	81.25	0.9181963999290019	2	0
232.81420152448118	0.8151459998916835	2	0	0	0	0	0	0
233.62934752437286	0.8170780001673847	2	49	1498403.506	62.5	0.4534951001405716	1	0
234.44642552454025	0.8189144998323172	2	49	1498404.953	62.5	1.0834576999768615	2	0
235.26534002437256	0.8130661000031978	1	49	1498405.717	68.75	1.028352600056678	2	0
236.07840612437576	0.8189336000941694	2	49	1498406.557	62.5	1.0551954000256956	2	0
236.89733972446993	0.8177302000112832	1	49	1498407.299	75	0.9784566001035273	2	0
237.7150699244812	0.8135313000530005	2	49	1498408.113	75	0.9749346999451518	2	0
238.5286012245342	0.8059864998795092	2	49	1498409.069	56.25	1.1171265998855233	2	0
239.33458772441372	0.8142783001530915	2	49	1498409.748	68.75	0.9901304999366403	2	0
240.14886602456681	0.8155029998160899	1	49	1498410.572	68.75	1.0000998999457806	2	0
240.9643690243829	0.8126795	2	0	0	0	0	0	0
241.77704852446914	0.8157907999120653	2	49	1498412.27	62.5	1.0698077999986708	2	0
242.5928393243812	0.8154226001352072	2	49	1498413.076	62.5	1.0597827001474798	2	0
243.4082619245164	0.8139903999399394	2	49	1498413.926	56.25	1.0944984999950975	2	0
244.22225232445635	0.8153089999686927	2	49	1498414.695	62.5	1.049549899995327	2	0
245.03756132442504	0.8164566000923514	2	49	1498415.669	43.75	1.2083628000691533	2	0
245.8540179245174	0.8170649998355657	2	0	0	0	0	0	0
246.67108292435296	0.8143169002141804	2	49	1498416.555	62.5	0.4606864000670612	1	0
247.48539982456714	0.8155307997949421	1	49	1498417.502	81.25	0.5929985	1	0
248.30093062436208	0.8174754	2	49	1498418.483	100	0.7589411	1	0
249.11840602452867	0.8150305999442935	2	49	1498419.265	93.75	0.7228353000245988	1	0
249.93343662447296	0.8178417000453919	2	49	1498420.331	75	0.9746313	2	0
250.75127832451835	0.8226793999783695	2	49	1498420.934	100	0.7597763000521809	1	0
251.57395772449672	0.8154076999053359	2	49	1498421.593	81.25	0.5961016	1	0
252.38936542440206	0.8176319999620318	2	49	1498422.339	68.75	0.526312	1	0
253.2069974243641	0.8143057	2	49	1498423.187	75	0.5565594001673162	1	0
254.0213031	0.8120541998650879	2	49	1498423.981	75	0.5366372000426054	1	0
254.83335732435808	0.8170189000666142	1	49	1498425.287	68.75	1.0306824001017958	2	0
255.6503762244247	0.8192958999425173	2	49	1498425.826	100	0.7523722001351416	1	0
256.4696721243672	0.8316280001308769	2	49	1498426.452	75	0.5588674	1	0
257.3013001244981	0.8177878998685628	2	49	1498427.209	68.75	0.48488730005919933	1	0
258.11908802436665	0.8177066000644118	2	49	1498428.515	75	0.9722904001828283	2	0
258.93679462443106	0.8129245000891387	2	49	1498429.388	68.75	1.0274368000682443	2	0
259.7497191245202	0.8109852999914438	2	49	1498430.011	87.5	0.8376343999989331	2	0
260.56070442451164	0.8196540998760611	2	49	1498430.683	93.75	0.6985961999744177	1	0
261.3803585243877	0.8067356999963522	2	49	1498431.362	75	0.5580134000629187	1	0
262.18709422438405	0.8107880000025034	2	49	1498432.15	75	0.5392875999677926	1	0
262.99788222438656	0.8206911999732256	2	49	1498433.034	81.25	0.6131474000867456	1	0
263.8185734243598	0.8204026999883354	2	49	1498434.17	81.25	0.9280599001795053	2	0
264.6389761243481	0.8131582	2	49	1498434.813	100	0.7504382	1	0
265.45213432447053	0.8117244	2	49	1498435.401	68.75	0.5253675999119878	1	0
266.2638587243855	0.8145050001330674	2	49	1498436.053	50	0.3655624999664724	1	0
267.07836372451857	0.8167331998702139	2	49	1498437.54	62.5	1.0383273	2	0
267.8950969243888	0.8069123001769185	2	49	1498438.317	68.75	0.9984818000812083	2	0
268.7020092245657	0.8204886999446899	2	49	1498439.031	81.25	0.9059810999315232	2	0
269.5224979245104	0.8146047999616712	2	49	1498439.673	93.75	0.7271944000385702	1	0
270.33710272447206	0.8141540000215173	2	49	1498440.567	93.75	0.8065931000746787	2	0
271.1512567244936	0.8203320000320673	2	49	1498441.459	87.5	0.8845160000491887	2	0
271.97158872452565	0.8140841999556869	2	49	1498442.276	87.5	0.8810624999459833	2	0
272.78567292448133	0.8152554999105632	2	49	1498442.876	87.5	0.6670929	1	0
273.6009284243919	0.8104088001418859	2	49	1498443.577	75	0.5528039999771863	1	0
274.4113372245338	0.8166936999186873	2	49	1498444.404	75	0.5688781	1	0
275.22803092445247	0.8224401	1	49	1498445.168	68.75	0.5165365000721067	1	0
276.0504710243549	0.8177703	2	49	1498445.803	50	0.32958700018934906	1	0
276.86824132455513	0.8138013000134379	2	49	1498446.602	43.75	0.31049049994908273	1	0
277.68204262456857	0.8176671999972314	1	49	1498448.176	62.5	1.0707965998444706	2	0
278.4997098245658	0.8153369999490678	2	49	1498449.076	50	1.1531038999091834	2	0
279.31504682451487	0.8140157999005169	2	0	0	0	0	0	0
280.1290626244154	0.8172506999690086	2	49	1498450.005	62.5	0.4530126000754535	1	0
280.9463133243844	0.8182697000447661	1	49	1498450.718	50	0.3487745001912117	1	0
281.76458302442916	0.8178105999249965	2	49	1498451.773	81.25	0.5854001000989228	1	0
282.58239362435415	0.8169234001543373	2	49	1498452.686	87.5	0.6805874002166092	1	0
283.3993170245085	0.8128122000489384	2	49	1498453.613	93.75	0.7906033999752253	2	0
284.21212922455743	0.8107323998119682	2	49	1498454.496	87.5	0.8608279000036418	2	0
285.0228616243694	0.8144347001798451	2	49	1498455.512	62.5	1.0662415002007037	2	0
285.83729632454924	0.8057873998768628	2	49	1498456.11	87.5	0.8489581998437643	2	0
286.6430837244261	0.8160870999563485	2	49	1498456.944	87.5	0.8772623	2	0
287.45917082438245	0.8204958999995142	2	49	1498457.826	75	0.9431852	2	0
288.27966672438197	0.8092289001215249	2	49	1498458.709	68.75	1.0060877001378685	2	0
289.0888956245035	0.8150404000189155	2	49	1498459.528	68.75	1.0158152000512928	2	0
289.9039360245224	0.8196476998273283	2	49	1498460.394	62.5	1.0665879999287426	2	0
290.72358372434974	0.8129668000619859	1	0	0	0	0	0	0
291.5365505244117	0.8145248000510037	2	49	1498461.647	93.75	0.6876195999793708	1	0
292.3510753244627	0.8228492001071572	2	49	1498462.567	93.75	0.7922143000178039	2	0
293.1739245245699	0.8068013999145478	1	0	0	0	0	0	0
293.98072592448443	0.8152395	2	49	1498464.183	100	0.7794595998711884	1	0
294.7959654	0.8187831998802722	2	49	1498465.057	93.75	0.8376157998573035	2	0
295.61474862438627	0.8180418000556529	2	49	1498465.978	81.25	0.9397531000431627	2	0
296.4327904244419	0.8190866000950336	2	49	1498466.986	56.25	1.1299624000675976	2	0
297.25187702453695	0.8153391999658197	2	49	1498467.484	93.75	0.8090953000355512	2	0
298.0672162245028	0.816949	2	49	1498468.586	56.25	1.0953464999329299	2	0
298.8841652243864	0.8207879001274705	2	49	1498469.244	81.25	0.9363849000073969	2	0
299.70495312451385	0.8228028998710215	2	49	1498470.021	87.5	0.8925538000185043	2	0
300.52775602438487	0.8188042000401765	1	49	1498470.95	68.75	0.9989003001246601	2	0
301.34656022442505	0.8131214000750333	2	49	1498471.613	87.5	0.8428915000986308	2	0
302.1596816245001	0.8137992999982089	1	49	1498472.339	100	0.7557318999897689	1	0
302.9734809244983	0.8280108000617474	2	49	1498473.208	93.75	0.8111745	2	0
303.80149172456004	0.8137224998790771	2	49	1498474.125	81.25	0.9004600998014212	2	0
304.6152142244391	0.8151356000453234	2	49	1498475.007	75	0.9687036999966949	2	0
305.43034982448444	0.8217889999505132	2	0	0	0	0	0	0
306.25213882443495	0.8152731000445783	2	49	1498476.15	62.5	0.4747222000733018	1	0
307.06741192447953	0.8156101999338716	1	49	1498477.373	87.5	0.8823821998666972	2	0
307.8830221244134	0.8159350000787526	2	49	1498478.353	62.5	1.0463104001246393	2	0
308.69895712449215	0.8208633998874575	2	0	0	0	0	0	0
309.5198205243796	0.8135149001609534	2	49	1498479.391	62.5	0.44759900006465614	1	0
310.33333542454056	0.8143144999630749	2	49	1498480.248	68.75	0.49162249988876283	1	0
311.14764992450364	0.8212027000263333	2	49	1498481.23	87.5	0.6593366998713464	1	0
311.9688526	0.8137814998626709	1	49	1498482.398	68.75	1.0060520998667926	2	0
312.78263412439264	0.8183115001302212	2	49	1498482.836	81.25	0.6302149000111967	1	0
313.60094562452286	0.8230049000121653	2	49	1498483.533	68.75	0.5084411	1	0
314.42395052453503	0.8067071000114083	2	49	1498484.582	100	0.7349320999346673	1	0
315.23065762454644	0.8202477998565882	1	49	1498485.439	100	0.7852125000208616	1	0
316.0509054	0.8171175001189113	2	49	1498486.662	50	1.1875685001723468	2	0
316.86802292452194	0.8230814000125974	2	0	0	0	0	0	0
317.69110432453454	0.8107561999931931	1	49	1498487.711	81.25	0.5970238998997957	1	0
318.50186052452773	0.8108356	2	49	1498488.817	81.25	0.8922085999511182	2	0
319.3126961	0.8152251001447439	2	49	1498489.784	62.5	1.0483546999748796	2	0
320.12792122457176	0.8175478999037296	2	49	1498490.696	50	1.145225599873811	2	0
320.9454691244755	0.8170882000122219	2	49	1498491.436	62.5	1.0667342999950051	2	0
321.7625573244877	0.8119864999316633	2	49	1498492.205	68.75	1.0186485000886023	2	0
322.5745438244194	0.8165315999649465	2	49	1498492.974	75	0.9757022000849247	2	0
323.3910754243843	0.8137745000422001	1	49	1498493.873	62.5	1.0590034001506865	2	0
324.2048499244265	0.8161895999219269	2	49	1498494.535	81.25	0.9064545999281108	2	0
325.02103952434845	0.8149311000015587	2	49	1498495.223	100	0.7781950000207871	1	0
325.8359706	0.8165009000804275	2	49	1498496.054	93.75	0.7944716000929475	2	0
326.65247152443044	0.8150750999338925	2	49	1498497.079	68.75	1.0027630000840873	2	0
327.46754662436433	0.8152429000474513	2	0	0	0	0	0	0
328.2827895244118	0.8195124000776559	2	49	1498498.146	62.5	0.4395471999887377	1	0
329.10230192448944	0.8173714000731707	2	49	1498498.945	56.25	0.41934129991568625	1	0
329.9196733245626	0.8202778999693692	2	49	1498499.825	62.5	0.48164799995720387	1	0
330.7399512	0.8193701999261975	2	49	1498500.566	56.25	0.40289589995518327	1	0
331.5593214244582	0.8212449001148343	2	49	1498501.5	68.75	0.5173263000324368	1	0
332.3805663	0.8152797999791801	2	49	1498502.392	81.25	0.5878323998767883	1	0
333.1958461245522	0.8124653999693692	2	49	1498503.321	93.75	0.7017294	1	0
334.00831152452156	0.8171844000462443	2	49	1498504.302	87.5	0.8701889999210835	2	0
334.8254959245678	0.8120793998241425	2	49	1498505.237	68.75	0.9880756000056863	2	0
335.63757532439195	0.8137036999687552	2	0	0	0	0	0	0
336.4512790243607	0.8134860000573099	1	49	1498506.497	81.25	0.6225872000213712	1	0
337.264765	0.8116169001441449	2	49	1498507.761	62.5	1.0728907000739127	2	0
338.07638192456216	0.8204971000086516	2	49	1498508.682	50	1.1824262998998165	2	0
338.8968790245708	0.8146877998951823	2	49	1498509.534	43.75	1.214227399788797	2	0
339.7115668	0.8160425000824034	2	49	1498510.238	56.25	1.103195199975744	2	0
340.5276093245484	0.8159312999341637	2	49	1498511.042	62.5	1.0911270999349654	2	0
341.34354062448256	0.8131963000632823	2	49	1498511.828	62.5	1.061308200005442	2	0
342.15673692454584	0.8212788999080658	2	49	1498512.624	62.5	1.0442339000292122	2	0
342.9780158244539	0.8106047001201659	2	49	1498513.332	81.25	0.9307941000442952	2	0
343.78862052457407	0.8165576998144388	2	49	1498514.096	87.5	0.8844191997777671	2	0
344.6051782243885	0.8154319999739528	1	49	1498515.138	56.25	1.109065500088036	2	0
345.42061022436246	0.8207494001835585	2	49	1498515.802	75	0.9583180001936853	2	0
346.2413596	0.8129457999020815	1	0	0	0	0	0	0
347.0543054244481	0.8220406000036746	2	49	1498517.252	100	0.7746476999018341	1	0
347.8763460244518	0.8160820999182761	2	49	1498518.12	93.75	0.8205214999616146	2	0
348.69242812437005	0.8142153001390398	2	49	1498519.119	68.75	1.0035178000107408	2	0
349.5066434245091	0.8161478999536484	2	49	1498519.741	93.75	0.8112063000444323	2	0
350.32279132446274	0.8117293000686914	2	49	1498520.684	75	0.9381969999521971	2	0
351.13452062453143	0.8205927999224514	2	49	1498521.607	68.75	1.0494758998975158	2	0
351.9551134244539	0.8141441000625491	2	49	1498522.47	56.25	1.0918821000959724	2	0
352.76925752451643	0.8164396998472512	2	49	1498523.327	56.25	1.1348880999721587	2	0
353.5856972243637	0.8147311001084745	2	49	1498523.954	75	0.9454262000508606	2	0
354.40042832447216	0.8174546000082046	2	49	1498524.837	68.75	1.0129166000988334	2	0
355.21788292448036	0.8176430999301374	2	49	1498525.579	81.25	0.9381913999095559	2	0
356.0355260244105	0.8121619999874383	2	49	1498526.418	75	0.9596500000916421	2	0
356.84768802439794	0.8170325001701713	2	49	1498527.391	56.25	1.1201663000974804	2	0
357.6647205245681	0.8212809998076409	2	49	1498527.973	87.5	0.8846279999706894	2	0
358.48600152437575	0.8139809	2	49	1498528.852	75	0.9423975001554936	2	0
359.29998242435977	0.8147158999927342	2	49	1498529.956	43.75	1.2326322000008076	2	0
360.1146983243525	0.8218193000648171	2	49	1498530.531	75	0.9925612001679838	2	0
360.9365176244173	0.8120176999364048	2	49	1498531.561	43.75	1.2008044000249356	2	0
361.7485353243537	0.8132891000714153	2	49	1498532.212	68.75	1.0399056000169367	2	0
362.56182442442514	0.8167705000378191	1	0	0	0	0	0	0
363.37859492446296	0.8181183999404311	1	49	1498533.597	93.75	0.7950734000187367	2	0
364.1967133244034	0.8134570999536663	2	49	1498534.735	56.25	1.1148074001539499	2	0
365.01017042435706	0.8153499001637101	2	0	0	0	0	0	0
365.82552032452077	0.8207157000433654	2	49	1498535.89	87.5	0.6409215999301523	1	0
366.64623602456413	0.8146075	2	49	1498536.567	68.75	0.49729169998317957	1	0
367.46084352442995	0.8162297001108527	2	49	1498537.478	81.25	0.5940720001235604	1	0
368.2770732245408	0.8160643000155687	2	49	1498538.357	87.5	0.6561629998032004	1	0
369.09313752455637	0.8186964998021722	2	49	1498539.322	93.75	0.8054257999174297	2	0
369.91183402435854	0.8126539001241326	2	0	0	0	0	0	0
370.7244879244827	0.8169048000127077	2	0	0	0	0	0	0
371.5413927244954	0.8162276998627931	2	49	1498541.569	81.25	0.6045895998831838	1	0
372.3576204243582	0.8142172	2	49	1498542.409	81.25	0.6280303001403809	1	0
373.17183762439527	0.8157181001733989	2	49	1498543.538	75	0.9428342999890447	2	0
373.98755572456867	0.8197784998919815	2	49	1498544.416	68.75	1.0052073998376727	2	0
374.80733422446065	0.8148932999465615	1	49	1498545.161	81.25	0.9307393000926822	2	0
375.6222275244072	0.8162603999953717	2	49	1498545.829	100	0.7835369999520481	1	0
376.4384879244026	0.8150053001008928	2	49	1498546.592	93.75	0.7302610001061112	1	0
377.2534932245035	0.8171452998649329	1	49	1498547.617	81.25	0.9402675000019372	2	0
378.0706385243684	0.8165154000744224	2	49	1498548.546	62.5	1.052236300194636	2	0
378.8871539244428	0.8141046001110226	1	49	1498549.147	87.5	0.8369523999281228	2	0
379.70125852455385	0.8165217000059783	2	49	1498549.956	93.75	0.8316160999238491	2	0
380.51778022455983	0.8155184998176992	2	49	1498550.691	100	0.7501899998169392	1	0
381.3332987243775	0.8192353001795709	2	49	1498551.822	62.5	1.0657594001386315	2	0
382.1525340245571	0.8141766998451203	2	0	0	0	0	0	0
382.9667107244022	0.8131405999884009	2	49	1498553.221	93.75	0.8313039999920875	2	0
383.7798513243906	0.8214379	2	49	1498553.895	93.75	0.6913429000414908	1	0
384.60128922434524	0.8155989001970738	2	49	1498554.606	81.25	0.5818438001442701	1	0
385.4168881245423	0.8148081998806447	2	49	1498555.442	81.25	0.6013227999210358	1	0
386.23169632442296	0.8206228001508862	2	49	1498556.397	100	0.7415571000892669	1	0
387.05231912457384	0.8119005998596549	1	49	1498557.149	87.5	0.6729358	1	0
387.8642197244335	0.8149429000914097	2	49	1498557.752	62.5	0.4641327999997884	1	0
388.6791626245249	0.8168414998799562	2	49	1498558.681	75	0.5781374999787658	1	0
389.49600412440486	0.8189777999650687	2	49	1498559.415	68.75	0.49555100011639297	1	0
390.31498192436993	0.8131735001225024	2	49	1498560.174	62.5	0.4352696	1	0
391.12815542449243	0.8204552999231964	1	49	1498561.102	75	0.5502818999812007	1	0
391.94861072441563	0.8250963999889791	2	49	1498561.849	62.5	0.4765817001461983	1	0
392.7737071244046	0.8185407	2	49	1498563.047	87.5	0.8495895001105964	2	0
393.5922478244174	0.8181543999817222	2	49	1498563.567	75	0.5512988001573831	1	0
394.41040222439915	0.8140189000405371	2	49	1498564.59	100	0.7559261999558657	1	0
395.2244211244397	0.8148755999282002	2	49	1498565.493	87.5	0.8450748000759631	2	0
396.0392967243679	0.8171934999991208	2	49	1498566.403	75	0.9401853000745177	2	0
396.8564902	0.8153739001136273	2	49	1498567.049	100	0.7691001000348479	1	0
397.67186412448063	0.8162376000545919	2	49	1498567.744	87.5	0.6485719999764115	1	0
398.4881017245352	0.8173658999148756	2	49	1498568.618	93.75	0.7068840998690575	1	0
399.3054676244501	0.8187804999761283	2	49	1498569.262	75	0.5331395000685006	1	0
400.12424812442623	0.8127547	2	49	1498570.127	81.25	0.5792638000566512	1	0
400.9370028243866	0.8075955000240356	2	49	1498570.772	56.25	0.4121807999908924	1	0
401.7445983244106	0.8132650000043213	2	49	1498571.684	68.75	0.5160630000755191	1	0
402.55786332441494	0.8136003001127392	2	49	1498572.893	81.25	0.9119200999848545	2	0
403.3714636245277	0.8215635998640209	2	0	0	0	0	0	0
404.1930272243917	0.8179494000505656	2	49	1498574.059	62.5	0.4429075999651104	1	0
405.01097662444226	0.8129211000632495	2	49	1498574.822	56.25	0.3878059999551624	1	0
405.8238977245055	0.809318	2	49	1498575.943	93.75	0.6961191	1	0
406.6332157244906	0.8172527998685837	2	49	1498576.805	100	0.7486084999982268	1	0
407.45046852435917	0.8162301999982446	2	49	1498577.47	81.25	0.5966985002160072	1	0
408.2666987243574	0.8179228000808507	2	49	1498578.25	75	0.5597813001368195	1	0
409.08462152443826	0.8177473000250757	2	49	1498579.01	68.75	0.5022332000080496	1	0
409.90236882446334	0.8178586000576615	2	49	1498580.033	93.75	0.7074967999942601	1	0
410.7202274	0.8087959999684244	2	49	1498580.704	75	0.5605478000361472	1	0
411.5290234244894	0.8229241999797523	2	49	1498582.036	62.5	1.0841294000856578	2	0
412.3519476244692	0.8176309000700712	2	49	1498582.758	75	0.9828532999381423	2	0
413.16957852453925	0.8221431998535991	2	49	1498583.467	87.5	0.8743367998395115	2	0
413.99172172439285	0.8106907000765204	1	49	1498584.201	100	0.7862119001802057	1	0
414.80241242446937	0.8144948999397457	2	49	1498584.864	87.5	0.6378452000208199	1	0
415.6169073244091	0.8110356000252068	2	49	1498585.779	100	0.7391075999476016	1	0
416.4279429244343	0.8171345	1	49	1498586.536	87.5	0.6851186999119818	1	0
417.24507742444985	0.8182135000824928	2	49	1498587.228	75	0.5598953999578953	1	0
418.06329092453234	0.8144682999700308	2	49	1498587.865	56.25	0.3786985999904573	1	0
418.87775922450237	0.8173758999910206	2	49	1498588.643	50	0.34170249989256263	1	0
419.6951351244934	0.8254013999830931	2	49	1498590.167	68.75	1.0490153999999166	2	0
420.5205365244765	0.8185413000173867	1	49	1498590.954	68.75	1.010013199876994	2	0
421.33907782449387	0.8157691999804229	2	49	1498591.677	81.25	0.9142270998563617	2	0
422.1548470244743	0.8133988	2	49	1498592.266	93.75	0.6883094999939203	1	0
422.9682458245661	0.8125463998876512	2	49	1498592.89	68.75	0.4984522999729961	1	0
423.78079222445376	0.8189481000881642	2	49	1498593.718	68.75	0.5134459000546485	1	0
424.5997403245419	0.8131676998455077	2	49	1498594.593	75	0.5695986999198794	1	0
425.41290802438743	0.8149960001464933	2	49	1498595.264	56.25	0.42743910010904074	1	0
426.2279040245339	0.8100594999268651	2	49	1498596.094	62.5	0.4424806998576969	1	0
427.0379635244608	0.8171705000568181	2	49	1498596.864	56.25	0.40303610009141266	1	0
427.8551340245176	0.8173847000580281	2	49	1498598.231	75	0.9522228999994695	2	0
428.67251872457564	0.8148948999587446	2	49	1498598.9	93.75	0.8038712998386472	2	0
429.4874136245344	0.8224347999785095	2	49	1498599.532	81.25	0.6210215999744833	1	0
430.3098484245129	0.8158867000602186	2	49	1498600.312	75	0.5785268999170512	1	0
431.1257351245731	0.8090713999699801	2	49	1498601.065	68.75	0.5163258998654783	1	0
431.9348065245431	0.8173835999332368	2	49	1498601.869	68.75	0.5107346000149846	1	0
432.75219012447633	0.8235295999329537	1	49	1498602.634	62.5	0.4583908999338746	1	0
433.5757197244093	0.8232078000437468	2	49	1498603.419	56.25	0.42006330005824566	1	0
434.39892752445303	0.8172774999402463	2	49	1498604.402	75	0.5797284999862313	1	0
435.2162050243933	0.8115220000036061	1	49	1498605.162	68.75	0.5224846999626607	1	0
436.0277270243969	0.8093229001387954	1	49	1498605.972	68.75	0.5212507999967784	1	0
436.8370499245357	0.8124946998432279	2	49	1498606.586	50	0.32563269999809563	1	0
437.6495446243789	0.8157701999880373	2	49	1498608.007	81.25	0.9342343001626432	2	0
438.46531482436694	0.8156687000300735	1	0	0	0	0	0	0
439.2809835	0.8148434001486748	2	49	1498609.333	81.25	0.6287842001765966	1	0
440.0958269245457	0.8160690998192877	2	49	1498610.162	87.5	0.6431617999915034	1	0
440.911896	0.8185078001115471	2	49	1498611.089	100	0.7533146000932902	1	0
441.7304038244765	0.8147533999290317	2	49	1498611.823	87.5	0.6692433999851346	1	0
442.54515722440556	0.8177337001543492	2	49	1498612.505	75	0.5366680000443012	1	0
443.3628909245599	0.8159795999526978	2	49	1498613.257	62.5	0.4710864999797195	1	0
444.1788705245126	0.8151752	2	49	1498614.662	62.5	1.0600175999570638	2	0
444.9940457243938	0.8195817000232637	2	49	1498615.351	81.25	0.9338247000705451	2	0
445.81362742441706	0.8119624	2	49	1498616.055	93.75	0.8184259000699967	2	0
446.62558982451446	0.8148626999463886	2	49	1498616.839	93.75	0.7902619000524282	2	0
447.44045252446085	0.8201820000540465	2	49	1498617.634	100	0.7704936999361962	1	0
448.2606345245149	0.8161205998621881	2	49	1498618.289	81.25	0.6055003998335451	1	0
449.0767551243771	0.8132629001047462	2	49	1498618.946	62.5	0.44556380016729236	1	0
449.89001802448183	0.8177227999549359	2	49	1498620.307	75	0.9931743000634015	2	0
450.70774082443677	0.8220307000447065	2	49	1498621.069	81.25	0.9377359999343753	2	0
451.5297715244815	0.8147626998834312	2	49	1498621.89	75	0.9364646000321954	2	0
452.3445342243649	0.8105553002096713	1	49	1498622.419	87.5	0.6516037001274526	1	0
453.1550895245746	0.8162765000015497	2	49	1498623.241	87.5	0.6630860997829586	1	0
453.9713660245761	0.8154227999038994	2	49	1498624.335	75	0.9407195998355746	2	0
454.7867888	0.8152709000278264	2	49	1498625.231	68.75	1.0213762999046594	2	0
455.60205972450785	0.8190516	2	49	1498626.111	62.5	1.085153899854049	2	0
456.4211113245692	0.8136340999044478	2	49	1498626.986	56.25	1.1410963998641819	2	0
457.23474542447366	0.8209857000038028	2	49	1498627.709	62.5	1.0504689998924732	2	0
458.05573112447746	0.8175494000315666	1	49	1498628.281	93.75	0.8015095	2	0
458.8732805	0.8193580999504775	2	49	1498628.871	75	0.5740864	1	0
459.6926386244595	0.8104970999993384	2	49	1498629.497	56.25	0.38062920002266765	1	0
460.50313572445884	0.8130584999453276	1	49	1498630.889	75	0.9624562999233603	2	0
461.31619422440417	0.8155367	2	49	1498631.563	93.75	0.8231665000785142	2	0
462.13173092436045	0.8194947000592947	2	49	1498632.275	93.75	0.7196167001966387	1	0
462.95122562441975	0.8215087000280619	2	49	1498632.904	68.75	0.5292355001438409	1	0
463.7727343244478	0.8238058	2	49	1498634.203	68.75	1.0067298000212759	2	0
464.5965401243884	0.8171801001299173	2	49	1498634.762	100	0.7418621000833809	1	0
465.41372022451833	0.8126083000097424	2	49	1498635.422	81.25	0.5846561000216752	1	0
466.22632852452807	0.8119872999377549	2	49	1498636.142	68.75	0.49217869993299246	1	0
467.0383158244658	0.8105899998918176	2	49	1498636.835	50	0.3733242000453174	1	0
467.84890582435764	0.8133237999863923	2	49	1498637.659	56.25	0.3867678001988679	1	0
468.66222962434404	0.8172372002154589	2	49	1498638.975	81.25	0.889433	2	0
469.4794668245595	0.8153697999659926	2	49	1498639.596	93.75	0.6931462998036295	1	0
470.2948366245255	0.8153128998819739	2	49	1498640.28	75	0.5618223999626935	1	0
471.11014952440746	0.8203750001266599	2	49	1498641.549	68.75	1.015586799941957	2	0
471.9305245245341	0.8207025	2	49	1498642.23	87.5	0.8763499	2	0
472.751227	0.8129654000513256	2	49	1498642.845	87.5	0.6701877999585122	1	0
473.5641924245283	0.8166433000005782	2	49	1498643.653	87.5	0.6655561998486519	1	0
474.3808357245289	0.8169473998714238	1	49	1498644.354	75	0.5500932999420911	1	0
475.1977831244003	0.8086941000074148	2	49	1498645.174	75	0.5524496999569237	1	0
476.0064772244077	0.8155110999941826	2	49	1498645.846	56.25	0.4166091000661254	1	0
476.8219883244019	0.8173152999952435	2	49	1498647.23	75	0.9848730999510735	2	0
477.63930362439714	0.8140818001702428	2	49	1498647.91	87.5	0.8477176001761109	2	0
478.4533854245674	0.8174428998026997	2	49	1498648.733	87.5	0.8566829999908805	2	0
479.2708283243701	0.8164107999764383	2	49	1498649.471	100	0.7764179001096636	1	0
480.0872391243465	0.8200259001459926	2	49	1498650.268	100	0.7578692000824958	1	0
480.9072650244925	0.8253254999872297	2	49	1498650.98	87.5	0.6490549000445753	1	0
481.73259052447975	0.8096264000050724	2	49	1498651.591	62.5	0.4354293	1	0
482.5422169244848	0.8095134000759572	2	49	1498652.975	68.75	1.009499599924311	2	0
483.3517303245608	0.8192696999758482	2	49	1498653.845	62.5	1.0696029998362064	2	0
484.1710000245366	0.8195858998224139	2	49	1498654.396	93.75	0.8019646999891847	2	0
484.99058592435904	0.8149071000516415	2	49	1498655.456	62.5	1.042448200052604	2	0
485.8054930244107	0.8140422001015395	2	49	1498656.177	75	0.9485464999452233	2	0
486.6195352245122	0.8198366998694837	2	49	1498656.89	87.5	0.8475928	2	0
487.4393719243817	0.8150925000663847	2	49	1498657.452	81.25	0.5896973	1	0
488.2544644244481	0.8131333000492305	2	49	1498658.106	62.5	0.42789950012229383	1	0
489.0675977244973	0.8128855000250041	2	49	1498659.004	68.75	0.5129048000089824	1	0
489.8804832245223	0.8178505999967456	2	49	1498660.324	68.75	1.0199410000350326	2	0
490.69833382451907	0.8181545999832451	2	0	0	0	0	0	0
491.5164884245023	0.8208179	2	49	1498661.387	62.5	0.44678470003418624	1	0
492.33730632439256	0.822161	1	49	1498662.319	75	0.5585923	1	0
493.1594673243817	0.8158413001801819	2	49	1498663.194	81.25	0.6108944001607597	1	0
493.9753086245619	0.8155224998481572	2	49	1498663.922	68.75	0.5230000999290496	1	0
494.79083112441003	0.8186999000608921	2	49	1498665.293	62.5	1.078581799985841	2	0
495.6095310244709	0.8139700000174344	2	49	1498665.94	81.25	0.9070858999621123	2	0
496.42350102448836	0.8178040999919176	2	49	1498666.678	93.75	0.8308206000365317	2	0
497.2413051244803	0.8117176000960171	2	49	1498667.399	100	0.7340376998763531	1	0
498.0530227245763	0.8135065	2	49	1498668.098	81.25	0.6215819998178631	1	0
498.86652922444046	0.8117657999973744	2	49	1498669.38	62.5	1.0899332000408322	2	0
499.67829502443783	0.8149931	2	49	1498670.13	68.75	1.0284633000846952	2	0
500.4932881244458	0.8163074001204222	2	49	1498670.942	68.75	1.0252912000287324	2	0
501.30959552456625	0.8148935998324305	2	49	1498671.765	68.75	1.032149599865079	2	0
502.1244891243987	0.8173110999632627	2	49	1498672.62	62.5	1.072425200138241	2	0
502.94180022436194	0.8159273001365364	2	49	1498673.438	62.5	1.0728771002031863	2	0
503.7577275244985	0.8215258000418544	2	49	1498674.279	56.25	1.0981516998726875	2	0
504.57925332454033	0.8159917998127639	2	49	1498675.352	25	1.3494807998649776	2	0
505.3952451243531	0.8135971000883728	2	49	1498675.897	62.5	1.0780029001180083	2	0
506.20884222444147	0.8132239000406116	2	49	1498676.664	68.75	1.0315415000077337	2	0
507.0220661244821	0.8198164999485016	2	49	1498677.537	62.5	1.0916909000370651	2	0
507.8418826244306	0.8206547999288887	2	49	1498678.482	43.75	1.2168658000882715	2	0
508.66253742435947	0.8135633000638336	2	0	0	0	0	0	0
509.4761007244233	0.8124067	2	0	0	0	0	0	0
510.2885074245278	n/a	0	0	0	0	0	0	0