onset	duration	cue	constant1	timestamp	stimulus_coherence	response_time	response	constant2
0.11975640000309795	0.8006936000892892	2	49	617866.9618	93.75	0.7884805999929085	2	0
0.9204500000923872	0.7988959999056533	1	0	0	0	0	0	0
1.7193459999980405	0.7968165000202134	2	49	617868.5289	100	0.7560171000659466	1	0
2.516162500018254	0.8022178000537679	2	49	617869.3208	100	0.7511305999942124	1	0
3.318380300072022	0.7975434999680147	2	49	617870.143	100	0.7710420000366867	1	0
4.115923800040036	0.8018852999666706	2	49	617870.8951	100	0.7256308000069112	1	0
4.917809100006707	0.7976461000507697	2	49	617871.738	100	0.7666383000323549	1	0
5.715455200057477	0.7986692000413314	2	49	617872.594	87.5	0.8250069000059739	2	0
6.514124400098808	0.7990722999675199	2	49	617873.285	93.75	0.7173628999153152	1	0
7.313196700066328	0.7984541000332683	2	49	617874.0171	87.5	0.6503284999635071	1	0
8.111650800099596	0.8451551	2	49	617874.8564	87.5	0.6912491999100894	1	0
8.956805900088511	0.7957085999660194	1	49	617875.906	81.25	0.8956182999536395	2	0
9.7525145	0.8009552999865264	2	0	0	0	0	0	0
10.553469800041057	0.7965283000376076	2	49	617877.1442	75	0.5371602000668645	1	0
11.349998100078665	0.7980270999250934	2	49	617878.0671	87.5	0.6635595000116155	1	0
12.148025200003758	0.7974535000976175	2	49	617879.0132	93.75	0.8116643000394106	2	0
12.945478700101376	0.7989168999483809	1	0	0	0	0	0	0
13.744395600049756	0.7996085999766365	2	49	617880.7782	68.75	0.9803042	2	0
14.544004200026393	0.8024074999848381	1	0	0	0	0	0	0
15.346411700011231	0.8081537000834942	2	49	617882.2423	87.5	0.8423168000299484	2	0
16.154565400094725	0.7988771999953315	1	0	0	0	0	0	0
16.953442600090057	0.7979191999183968	2	49	617883.7606	100	0.753576	1	0
17.751361800008453	0.7989838999928907	2	49	617884.5014	93.75	0.6964957000454888	1	0
18.550345700001344	0.7958911000750959	2	49	617885.3297	100	0.7257551000220701	1	0
19.34623680007644	0.7972310000332072	2	49	617886.1334	100	0.7336428000126034	1	0
20.143467800109647	0.7969998999033123	2	49	617886.9169	93.75	0.7198649999918416	1	0
20.94046770001296	0.7972715999931097	2	49	617887.7594	100	0.7653725000564009	1	0
21.73773930000607	0.7995965000009164	2	49	617888.5686	93.75	0.7772772000171244	2	0
22.537335800006986	0.7992614000104368	2	49	617889.3067	93.75	0.7158154000062495	1	0
23.336597200017422	0.7958807999966666	2	49	617890.1496	100	0.7594215	1	0
24.13247800001409	0.8086785	2	49	617890.9445	100	0.7584854000015184	1	0
24.941156500019133	0.7975746000884101	2	49	617891.9596	75	0.9649014000315219	2	0
25.738731100107543	0.7979406999656931	2	49	617892.5707	93.75	0.7784030999755487	2	0
26.536671800073236	0.7965163999469951	1	0	0	0	0	0	0
27.33318820002023	0.7974543999880552	1	0	0	0	0	0	0
28.130642600008287	0.7979434001026675	2	49	617895.0218	87.5	0.8375929000321776	2	0
28.928586000110954	0.8055307999020442	2	49	617895.7336	100	0.7514419999206439	1	0
29.7341168	0.8009545000968501	1	0	0	0	0	0	0
30.53507130010985	0.7968107999768108	2	49	617897.16	81.25	0.5713978999992833	1	0
31.33188210008666	0.7997593999607489	2	49	617898.0568	87.5	0.6713593999156728	1	0
32.13164150004741	0.7973682000301778	2	49	617898.8629	93.75	0.6776607000501826	1	0
32.929009700077586	0.7976066999835894	2	49	617899.6851	93.75	0.7025546999648213	1	0
33.726616400061175	0.7968476000241935	2	49	617900.5428	100	0.7625906999455765	1	0
34.52346400008537	0.8003563999664038	2	49	617901.3732	93.75	0.7961951999459416	2	0
35.32382040005177	0.7965175999561325	2	49	617902.1331	100	0.7556896000169218	1	0
36.120338000007905	0.7971792999887839	2	49	617902.895	100	0.7211014000931755	1	0
36.91751729999669	0.8037095000036061	2	49	617903.6193	87.5	0.6481899000937119	1	0
37.721226800000295	0.7971902000717819	2	49	617904.4991	100	0.7243196000345051	1	0
38.51841700007208	0.7975068000378087	2	49	617905.2351	87.5	0.6630863000173122	1	0
39.315923800109886	0.7973050998989493	2	49	617905.9651	81.25	0.5956290999893099	1	0
40.113228900008835	0.7978503000922501	1	49	617906.7761	81.25	0.6092917000642046	1	0
40.911079200101085	0.8067413	2	49	617907.654	93.75	0.6893313999753445	1	0
41.71782050002366	0.8024276000214741	2	49	617908.5793	93.75	0.8079021000303328	2	0
42.52024810004514	0.8042982000624761	2	49	617909.3642	93.75	0.7903800000203773	2	0
43.32454630010761	0.7977204999187961	2	49	617910.0333	87.5	0.6552285999059677	1	0
44.12226680002641	0.7974212999688461	2	49	617910.7682	81.25	0.5924334999872372	1	0
44.919688099995255	0.8006148000713438	2	49	617911.5652	81.25	0.5920115	1	0
45.7203029	0.7995530000189319	2	49	617912.3544	81.25	0.5805438000243157	1	0
46.51985590008553	0.7985010999254882	2	49	617913.2069	87.5	0.6335444999858737	1	0
47.31835700001102	0.7967376000015065	2	49	617913.9806	81.25	0.6086549999890849	1	0
48.115094600012526	0.7981253	2	49	617914.7432	81.25	0.5745831000385806	1	0
48.913219900103286	0.7995721999322996	2	49	617915.5139	75	0.5471419999375939	1	0
49.712792100035585	0.7970472000306472	2	49	617916.4523	93.75	0.6859849	1	0
50.50983930006623	0.7965228999964893	2	49	617917.0969	75	0.5335231999633834	1	0
51.30636220006272	0.7999027000041679	2	49	617918.0755	93.75	0.7155846999958158	1	0
52.10626490006689	0.8001066000433639	2	49	617918.9196	100	0.7597562000155449	1	0
52.906371500110254	0.7964741999749094	2	49	617919.8065	87.5	0.8465474999975413	2	0
53.70284570008516	0.7965684999944642	1	0	0	0	0	0	0
54.49941420007963	0.8000324999447912	2	49	617921.1807	87.5	0.6276918000075966	1	0
55.29944670002442	0.7973669	2	49	617922.0206	87.5	0.6676341000711545	1	0
56.0968136	0.7967077000066638	2	49	617922.7326	81.25	0.5822246000170708	1	0
56.89352130005136	0.8056189999915659	2	49	617923.6326	93.75	0.6855230999644846	1	0
57.69914030004293	0.7963074999861419	2	49	617924.5038	100	0.7510941000655293	1	0
58.49544780002907	0.8013882000232115	2	49	617925.2481	93.75	0.6991071000229567	1	0
59.29683600005228	0.796695	2	49	617925.9407	81.25	0.5903529999777675	1	0
60.093531000078656	0.7980894999345765	2	49	617926.7746	87.5	0.6274901999859139	1	0
60.89162050001323	0.7990703000687063	2	49	617927.5138	75	0.5686371000483632	1	0
61.69069080008194	0.7983056999510154	2	49	617928.3131	75	0.5688846999546513	1	0
62.488996500032954	0.7967289000516757	2	49	617929.0828	75	0.5402057999745011	1	0
63.28572540008463	0.8002544000046328	2	49	617929.9701	87.5	0.6308456999249756	1	0
64.08597980008926	0.8013541999971494	2	49	617930.71	75	0.5704361000098288	1	0
64.88733400008641	0.8014326000120491	2	49	617931.5569	81.25	0.6160068999743089	1	0
65.68876660009846	0.8008086999179795	1	49	617932.3638	81.25	0.6214539000065997	1	0
66.48957530001644	0.7996514000697061	2	49	617933.357	93.75	0.8138893999857828	2	0
67.28922670008615	0.7963914999272674	1	0	0	0	0	0	0
68.08561820001341	0.8032653999980539	2	49	617934.7519	81.25	0.6127097000135109	1	0
68.88888360001147	0.7983202000614256	2	49	617935.6121	87.5	0.6696611000224948	1	0
69.6872038	0.7979504999238998	2	49	617936.403	87.5	0.6622965999413282	1	0
70.4851543	0.7989691001130268	2	49	617937.1422	81.25	0.6035113000543788	1	0
71.28412340010982	0.8000587999122217	2	49	617937.9503	81.25	0.6125926	1	0
72.08418220002204	0.8003432999830693	2	49	617938.8401	93.75	0.7023800000315532	1	0
72.88452550000511	0.7966623000102118	1	0	0	0	0	0	0
73.68118780001532	0.7953712000744417	2	49	617940.4343	93.75	0.6996049000881612	1	0
74.47655900008976	0.7978294999338686	2	49	617941.1503	81.25	0.6201974999858066	1	0
75.27438850002363	0.7959969	2	49	617941.9473	81.25	0.6193837000755593	1	0
76.07038540008944	0.8000770999351516	2	49	617942.7211	81.25	0.5971900000004098	1	0
76.87046250002459	0.7959689000854269	2	49	617943.6495	100	0.7254801000235602	1	0
77.66643140011001	0.8016773998970166	2	49	617944.4543	100	0.7343467999016866	1	0
78.46810880000703	0.7960278000682592	2	49	617945.2204	93.75	0.6987206999910995	1	0
79.26413660007529	0.7969167999690399	2	49	617946.0855	100	0.7678284000139683	1	0
80.06105340004433	0.7973288999637589	2	49	617946.8814	100	0.7667889000149444	1	0
80.85838230000809	0.7971106000477448	2	49	617947.6245	93.75	0.7125303000211716	1	0
81.65549290005583	0.7971169999800622	1	0	0	0	0	0	0
82.4526099	0.7994556999765337	2	49	617949.1315	87.5	0.6253705000272021	1	0
83.25206560001243	0.8005802	2	49	617950.0864	93.75	0.7808173	2	0
84.05264580005314	0.7997132999589667	2	49	617950.7748	87.5	0.6685585000086576	1	0
84.85235910001211	0.7967951000900939	2	49	617951.5696	87.5	0.6637304000323638	1	0
85.6491542	0.7980226000072435	2	49	617952.4088	93.75	0.7061093999072909	1	0
86.44717680010945	0.7967228998895735	2	49	617953.1866	93.75	0.6858548999298364	1	0
87.24389969999902	0.7983817000640556	2	49	617953.8587	75	0.5612706000683829	1	0
88.04228140006308	0.7961571000050753	2	49	617954.6216	75	0.5258181999670342	1	0
88.83843850006815	0.8019585999427363	2	49	617955.3637	62.5	0.4716797999572009	1	0
89.64039710001089	0.7983176000416279	2	49	617956.1369	62.5	0.44292490009684116	1	0
90.43871470005251	0.8008659000042826	2	49	617957.0139	75	0.5216118999524042	1	0
91.2395806	0.802651	2	49	617957.963	87.5	0.6698235999792814	1	0
92.04223160003312	0.8009375999681652	2	49	617958.6088	68.75	0.5129999000346288	1	0
92.84316920000128	0.7963044000789523	2	49	617959.4529	75	0.5561557000037283	1	0
93.63947360008024	0.7990896999835968	2	49	617960.3939	93.75	0.7008989	1	0
94.43856330006383	0.7967303999466822	2	49	617961.2493	100	0.7571758000412956	1	0
95.23529370001052	0.8011170000536367	2	49	617962.0814	93.75	0.7925197000149637	2	0
96.03641070006415	0.8023528000339866	2	49	617962.9979	81.25	0.9079873999580741	2	0
96.83876350009814	0.7970170999178663	2	49	617963.6759	93.75	0.7836023999843746	2	0
97.6357806	0.7973458000924438	2	49	617964.4962	93.75	0.8069110000506043	2	0
98.43312640010845	0.7979148000013083	2	49	617965.164	93.75	0.6773535999236628	1	0
99.23104120010976	0.7965479	2	49	617965.941	87.5	0.6564525999128819	1	0
100.02758910006378	0.7963743000291288	2	49	617967.1873	56.25	1.1061812000116333	2	0
100.82396340009291	0.7962649000110105	2	49	617967.8151	75	0.9375956999137998	2	0
101.62022830010392	0.8023758999770507	2	49	617968.4681	93.75	0.7943658999865875	2	0
102.42260420008097	0.7961079999804497	2	49	617969.1621	93.75	0.6859568000072613	1	0
103.21871220006142	0.7997329999925569	1	49	617969.8243	75	0.5520245999796316	1	0
104.01844520005397	0.7979829	2	49	617970.7042	87.5	0.6322220000438392	1	0
104.81642810010817	0.7971555999247357	2	49	617971.5073	87.5	0.6372740999795496	1	0
105.6135837000329	0.7960693000350147	2	49	617972.4492	93.75	0.7821072000078857	2	0
106.40965300006792	0.7970393999712542	2	49	617973.2631	93.75	0.7998720000032336	2	0
107.20669240003917	0.7963813999667764	2	49	617974.0792	87.5	0.8189809999894351	2	0
108.00307380000595	0.7974814000772312	1	0	0	0	0	0	0
108.80055520008318	0.7956331999739632	2	49	617975.6285	93.75	0.7743804999627173	2	0
109.59618840005714	0.7975458	2	49	617976.3975	100	0.7477303	1	0
110.39373420004267	0.7965574000263587	2	49	617977.2019	100	0.7545869000023231	1	0
111.19029160006903	0.798086	2	49	617978.0465	93.75	0.8026944999583066	2	0
111.98837760009337	0.7971063000150025	1	49	617978.6865	87.5	0.6445878999074921	1	0
112.78548390010837	0.8037125999107957	2	49	617979.5985	100	0.7595097000012174	1	0
113.58919650001917	0.7970943000400439	2	49	617980.4005	100	0.7577178999781609	1	0
114.38629080005921	0.8002815999789163	2	49	617981.1791	100	0.7392239000182599	1	0
115.18657240003813	0.7999489000067115	2	49	617982.0245	93.75	0.7844226	2	0
115.98652130004484	0.8045252000447363	2	49	617982.8487	93.75	0.8086703000590205	2	0
116.79104650008958	0.8014545999467373	2	49	617983.491	87.5	0.6464262999361381	1	0
117.59250110003632	0.8024494000710547	2	49	617984.3728	100	0.7267302	1	0
118.39495050010737	0.7978803999722004	2	49	617985.2488	93.75	0.8003379	2	0
119.19283090007957	0.7963312999345362	2	49	617985.85	81.25	0.6036351999500766	1	0
119.9891622000141	0.7972268000012264	1	0	0	0	0	0	0
120.78638900001533	0.7971337999915704	2	49	617987.5178	93.75	0.6778934000758454	1	0
121.5835228000069	0.7982114000478759	2	49	617988.4438	93.75	0.8067723	2	0
122.38173420005478	0.7970307000214234	2	49	617989.1648	100	0.7295454000122845	1	0
123.1787649000762	0.7969728999305516	2	49	617990.23	68.75	0.9976671999320388	2	0
123.97573780000675	0.7979726000921801	2	49	617990.9127	81.25	0.8834105000132695	2	0
124.77371040009893	0.7969423999311402	2	49	617991.7428	81.25	0.9155595	2	0
125.57065280003008	0.7967782000778243	2	49	617992.4239	93.75	0.7997414000565186	2	0
126.3674310001079	0.7966100999619812	2	49	617993.2598	87.5	0.8387721999315545	2	0
127.16404110006988	0.7963111000135541	2	49	617993.9744	100	0.7568330999929458	1	0
127.96035220008343	0.7963688999880105	2	49	617994.8005	93.75	0.7865830999799073	2	0
128.75672110007145	0.7968136999988928	2	49	617995.6091	93.75	0.7988687999313697	2	0
129.55353480007034	0.7970484000397846	2	49	617996.3889	93.75	0.7818056000396609	2	0
130.35058320011012	0.8042181999189779	2	49	617997.232	93.75	0.8278757	2	0
131.1548014000291	0.7963840999873355	2	49	617998.1209	81.25	0.9125469999853522	2	0
131.95118550001644	0.8053317000158131	2	49	617998.7161	93.75	0.7113949999911711	1	0
132.75651720003225	0.8061094000004232	2	49	617999.4689	87.5	0.6588771999813616	1	0
133.56262660003267	0.7989721	2	49	618000.2204	81.25	0.6042082000058144	1	0
134.36159870005213	0.7969611999578774	2	49	618001.1193	93.75	0.7041183999972418	1	0
135.1585599	0.7972187000559643	1	49	618002.0292	93.75	0.8171209000283852	2	0
135.95577860006597	0.7970955999335274	2	49	618002.8332	87.5	0.8239048999967054	2	0
136.7528741999995	0.7967398000182584	2	49	618003.6042	93.75	0.7978133000433445	2	0
137.54961400001775	0.8036731000756845	2	49	618004.3864	93.75	0.7831868000794202	2	0
138.35328710009344	0.8015672	2	49	618005.1543	100	0.7474753999849781	1	0
139.15485430008266	0.7983753000153229	2	49	618005.8674	87.5	0.6590307999867946	1	0
139.95322960009798	0.7967034999746829	2	49	618006.6984	93.75	0.6915848999051377	1	0
140.74993310007267	0.7990490000229329	2	49	618007.4843	93.75	0.6807772000320256	1	0
141.5489821000956	0.8023466999875382	2	49	618008.3434	100	0.7408297999063507	1	0
142.35132880008314	0.8001898999791592	2	49	618009.0765	87.5	0.6715899999253452	1	0
143.1515187000623	0.7978021999588236	2	49	618009.8055	81.25	0.6004478000104427	1	0
143.94932090002112	0.8028682000003755	2	49	618010.6594	87.5	0.6565005000447854	1	0
144.7521891000215	0.8081102999858558	2	49	618011.5585	100	0.7527200999902561	1	0
145.56029940000735	0.8011363000841811	2	49	618012.3695	100	0.7556911000283435	1	0
146.36143570009153	0.7970712999813259	2	49	618013.1376	100	0.7225794999394566	1	0
147.15850700007286	0.7979363999329507	2	49	618013.8045	81.25	0.5924484999850392	1	0
147.9564434000058	0.7965717000188306	2	49	618014.5017	68.75	0.4916965001029894	1	0
148.75301510002464	0.7999007999897003	2	49	618015.4169	81.25	0.6102952000219375	1	0
149.55291590001434	0.7967402000213042	2	49	618016.1447	75	0.5382474000798538	1	0
150.34965610003565	0.7983072999631986	2	49	618016.8648	62.5	0.46160519996192306	1	0
151.14796339999884	0.7974759000353515	1	49	618017.7281	75	0.5265760000329465	1	0
151.9454393000342	0.7961474000476301	2	49	618018.4418	62.5	0.44285680004395545	1	0
152.74158670008183	0.7977182000176981	2	49	618019.2665	62.5	0.4713917999761179	1	0
153.53930490009952	0.7995504999998957	2	49	618020.0404	62.5	0.4475200999295339	1	0
154.33885540009942	0.7973864	2	49	618020.8808	68.75	0.48841419990640134	1	0
155.13624180003535	0.7972516000736505	2	49	618021.8088	81.25	0.6190347999799997	1	0
155.9334934	0.8030589999398217	2	49	618022.647	87.5	0.6599112999392673	1	0
156.73655240004882	0.7985796000575647	1	0	0	0	0	0	0
157.5351320001064	0.7960681999102235	2	49	618024.277	93.75	0.6882705999305472	1	0
158.3312002000166	0.7963853999972343	2	49	618025.1759	93.75	0.7911519000772387	2	0
159.12758560001384	0.7985642000567168	1	49	618025.9618	93.75	0.7806415000231937	2	0
159.92614980007056	0.8006727999309078	2	49	618026.7519	100	0.7721787999616936	1	0
160.72682260000147	0.8006921000778675	1	0	0	0	0	0	0
161.52751470007934	0.8000141999218613	2	49	618028.2859	93.75	0.7048763999482617	1	0
162.3275289000012	0.7977857000660151	2	49	618029.0509	87.5	0.6698635000502691	1	0
163.1253146000672	0.7958474999759346	2	49	618029.9052	100	0.7263283999636769	1	0
163.92116210004315	0.8004970999900252	2	49	618030.575	81.25	0.6002570999553427	1	0
164.72165920003317	0.8037359999725595	2	49	618031.5435	100	0.7683046000311151	1	0
165.52539520000573	0.7968971	1	0	0	0	0	0	0
166.3222923000576	0.7972846999764442	1	49	618033.2138	87.5	0.8379675999749452	2	0
167.11957700003404	0.8016402999637648	2	49	618034.0612	81.25	0.8881131999660283	2	0
167.9212172999978	0.7967858000192791	2	49	618034.7687	93.75	0.7939506000839174	2	0
168.71800310001709	0.7989654000848532	2	49	618035.4973	100	0.7257786000845954	1	0
169.51696850010194	0.7985975999617949	2	49	618036.2212	87.5	0.6506635999539867	1	0
170.31556610006373	0.7977512000361457	2	49	618036.9895	87.5	0.6203351	1	0
171.11331730009988	0.7975953998975456	2	49	618037.8643	93.75	0.6974785999627784	1	0
171.91091269999743	0.7975903000915423	2	49	618038.7312	100	0.7667456000344828	1	0
172.70850300008897	0.7967090000165626	2	49	618039.5499	93.75	0.7878912999294698	2	0
173.50521200010553	0.8115271999267861	2	49	618040.2797	93.75	0.7209472999675199	1	0
174.31673920003232	0.8050821999786422	2	49	618041.0094	87.5	0.6391542999772355	1	0
175.12182140001096	0.7973287000786513	1	0	0	0	0	0	0
175.9191501000896	0.7970632999204099	1	49	618042.6435	87.5	0.6707697999663651	1	0
176.71621340001002	0.7973204	2	49	618043.5589	93.75	0.7891789000714198	2	0
177.51353380002547	0.7991997000062838	1	0	0	0	0	0	0
178.31273350003175	0.7972461000317708	1	0	0	0	0	0	0
179.10997960006353	0.8002647999674082	2	49	618045.8566	93.75	0.6931054999586195	1	0
179.91024440003093	0.8057780000381172	2	49	618046.577	81.25	0.6132259999867529	1	0
180.71602240006905	0.8001121999695897	2	49	618047.4824	93.75	0.7128365	1	0
181.51613460003864	0.7963877000147477	2	49	618048.2289	87.5	0.6591940000653267	1	0
182.3125223000534	0.7968900999985635	2	49	618049.1427	93.75	0.7766549000516534	2	0
183.10941240005195	0.8026944999583066	2	49	618049.7436	81.25	0.5806835000403225	1	0
183.91210690001026	0.7966845000628382	2	49	618050.5309	75	0.5652779000811279	1	0
184.7087914000731	0.7991393000120297	2	49	618051.3579	81.25	0.5956070999382064	1	0
185.50793070008513	0.7969802999868989	2	49	618052.0408	68.75	0.4793004000093788	1	0
186.30491100007202	0.7973847999237478	2	49	618052.9429	81.25	0.5844083999982104	1	0
187.10229579999577	0.7975460001034662	1	49	618053.7999	87.5	0.6440740000689402	1	0
187.89984180009924	0.7974049999611452	2	49	618054.8592	81.25	0.9057695999508724	2	0
188.69724680006038	0.8000781999435276	2	49	618055.6859	75	0.9350778	2	0
189.4973250000039	0.7965803000843152	2	49	618056.3289	93.75	0.7780501000816002	2	0
190.29390530008823	0.7959563999902457	2	49	618057.041	93.75	0.6935470999451354	1	0
191.08986170007847	0.8108044000109658	2	49	618057.7519	81.25	0.6084693999728188	1	0
191.90066610008944	0.8275933999102563	2	49	618058.6499	87.5	0.6956662000156939	1	0
192.7282594999997	0.7973418000619859	1	49	618059.4229	87.5	0.6411191000370309	1	0
193.52560130006168	0.7999868999468163	2	49	618060.3205	100	0.7413343000225723	1	0
194.3255882000085	0.8068347000516951	2	49	618061.1803	93.75	0.8011321000522003	2	0
195.1324229000602	0.7985922	1	0	0	0	0	0	0
195.93101510009728	0.7979142999975011	2	49	618062.6661	93.75	0.6815752999391407	1	0
196.72892940009478	0.7977544999448583	2	49	618063.5272	100	0.7447323	1	0
197.52668390003964	0.8032843000255525	2	49	618064.3796	93.75	0.7993313999613747	2	0
198.3299682000652	0.7958388000261039	1	0	0	0	0	0	0
199.1258070000913	0.7973712999373674	2	49	618065.9117	100	0.7323253999929875	1	0
199.92317830002867	0.7975764999864623	2	49	618066.6497	87.5	0.6729319000151008	1	0
200.72075480001513	0.7985923000378534	2	49	618067.5814	93.75	0.8071133000776172	2	0
201.51934710005298	0.7971620999742299	2	49	618068.3114	100	0.7384869999950752	1	0
202.3165092000272	0.7974746000254527	2	49	618069.1435	93.75	0.7734429000411183	2	0
203.11398380005267	0.7971406	2	49	618070.0028	87.5	0.8352786999894306	2	0
203.9111244	0.7969994999002665	2	49	618070.7257	100	0.7610724999103695	1	0
204.70812389999628	0.7967310000676662	2	49	618071.5127	100	0.7509809	1	0
205.50485490006395	0.7966876999707893	2	49	618072.2724	93.75	0.7140353999566287	1	0
206.30154260003474	0.8019046999979764	2	49	618073.0935	100	0.7384400999872014	1	0
207.1034473000327	0.7971337999915704	2	49	618073.9005	100	0.7435046000173315	1	0
207.90058110002428	0.7995438000652939	2	49	618074.6506	93.75	0.6964820000575855	1	0
208.70012490008958	0.7978993	2	49	618075.4276	93.75	0.6738868999527767	1	0
209.49802420008928	0.7986362999072298	2	49	618076.1805	87.5	0.6289508	1	0
210.2966604999965	0.7987782000564039	2	49	618076.9488	81.25	0.5986306000268087	1	0
211.0954387000529	0.8004682	2	49	618077.7697	81.25	0.6207251000450924	1	0
211.8959069000557	0.7961094999918714	2	49	618078.6105	87.5	0.6610536000225693	1	0
212.69201640004758	0.8004996000090614	2	49	618079.3926	87.5	0.6470330000156537	1	0
213.49251600005664	0.7977710999548435	2	49	618080.1807	87.5	0.6346120999660343	1	0
214.29028710001148	0.7993112000403926	2	49	618080.9664	81.25	0.6225180000765249	1	0
215.08959830005188	0.7973866000538692	2	49	618081.7841	87.5	0.6409844000590965	1	0
215.88698490010574	0.7971447999589145	2	49	618082.6234	93.75	0.6828374000033364	1	0
216.68412970006466	0.7980281999334693	2	49	618083.3408	81.25	0.6031399000203237	1	0
217.48215789999813	0.7986848000437021	2	49	618084.1129	81.25	0.5771727000828832	1	0
218.28084270004183	0.7970260999863967	2	49	618084.986	87.5	0.651592	1	0
219.07786880002823	0.7970687000779435	2	49	618085.8399	93.75	0.7085000000661239	1	0
219.87493750010617	0.7954235998913646	2	49	618086.7599	87.5	0.8313987998990342	2	0
220.67036109999754	0.7946519000688568	2	49	618087.5029	93.75	0.7789907000260428	2	0
221.4650130000664	0.7949703999329358	2	49	618088.358	87.5	0.8394533999962732	2	0
222.25998339999933	0.7985204	2	49	618089.1081	93.75	0.7945310000795871	2	0
223.05850380007178	0.7973234000382945	2	49	618089.928	93.75	0.8159343999577686	2	0
223.85582720011007	0.8015501999761909	2	49	618090.6059	93.75	0.6964895999990404	1	0
224.65737740008626	0.7980181999737397	2	49	618091.3013	81.25	0.5903604999184608	1	0
225.4553956	0.8030955999856815	2	49	618092.019	68.75	0.5100910000037402	1	0
226.25849120004568	0.7974155000410974	2	49	618092.7986	68.75	0.48655809997580945	1	0
227.05590670008678	0.7991895999293774	2	49	618093.5902	68.75	0.48077769996598363	1	0
227.85509630001616	0.7969330000923946	1	49	618094.4411	75	0.5324865999864414	1	0
228.65202930010855	0.7986989999189973	2	49	618095.3795	93.75	0.6739321999484673	1	0
229.45072830002755	0.7983574999962002	2	49	618096.2093	93.75	0.7049850000767037	1	0
230.24908580002375	0.7999851000495255	2	49	618096.9264	87.5	0.6237636000150815	1	0
231.04907090007327	0.8016130999894813	2	49	618097.8313	100	0.7286665999563411	1	0
231.85068400006276	0.7970286	2	49	618098.6144	93.75	0.7101208999520168	1	0
232.6477126000682	0.7985925000393763	2	49	618099.4734	100	0.7721708	1	0
233.44630510010757	0.7997729999478906	2	49	618100.2404	100	0.7405059000011533	1	0
234.24607810005546	0.7993683000095189	2	49	618100.9545	87.5	0.6549063000129536	1	0
235.04544640006498	0.7974485999438912	2	49	618101.7597	87.5	0.6606552000157535	1	0
235.84289500000887	0.7973148000892252	2	49	618102.5955	93.75	0.6990242000902072	1	0
236.6402098000981	0.7965234000002965	2	49	618103.3284	87.5	0.6346454999875277	1	0
237.4367332000984	0.7972852999810129	2	49	618104.1104	81.25	0.6201656999764964	1	0
238.2340185000794	0.7994745000032708	2	49	618104.9876	93.75	0.7000668999971822	1	0
239.03349300008267	0.7986994999228045	2	49	618105.7438	87.5	0.6567790999542922	1	0
239.83219250000548	0.8011234001023695	2	49	618106.6097	93.75	0.7239367000292987	1	0
240.63331590010785	0.7955565999727696	2	49	618107.5826	81.25	0.8957720999605954	2	0
241.42887250008062	0.7989062999840826	2	49	618108.3376	87.5	0.8551792999496683	2	0
242.2277788000647	0.7970741000026464	2	49	618109.0614	93.75	0.7800621000351384	2	0
243.02485290006734	0.8005127999931574	2	49	618109.9297	87.5	0.8512682999717072	2	0
243.8253657000605	0.8047337000025436	2	49	618110.68	93.75	0.8010939999949187	2	0
244.63009940006305	0.8001199000282213	2	49	618111.6948	68.75	1.0111860999604687	2	0
245.43021930009127	0.7974293999141082	2	49	618112.3317	87.5	0.8479249000083655	2	0
246.22764870000537	0.8061304000439122	2	49	618113.0158	100	0.7346045000012964	1	0
247.0337791000493	0.7996804000576958	2	49	618113.7748	93.75	0.6874633999541402	1	0
247.83345950010698	0.7996386999730021	2	49	618114.6133	100	0.7262656999519095	1	0
248.63309820007998	0.8005397999659181	2	49	618115.3358	87.5	0.6491689999820665	1	0
249.4336380000459	0.7957881	2	49	618116.0698	81.25	0.5826258000452071	1	0
250.2294261000352	0.8009270000038669	2	49	618116.9248	87.5	0.6418379000388086	1	0
251.03035310003906	0.8040042000357062	2	49	618117.732	87.5	0.6480480000609532	1	0
251.83435730007477	0.8030441	2	49	618118.4342	75	0.5462906999746338	1	0
252.63740140001755	0.7970495000481606	2	49	618119.3749	93.75	0.6839249000186101	1	0
253.4344509000657	0.7979845999507234	1	49	618120.323	87.5	0.8350061000091955	2	0
254.23243550001644	0.8040307000046596	2	49	618121.4377	50	1.1517455000430346	2	0
255.0364662000211	0.8027682000538334	2	0	0	0	0	0	0
255.83923440007493	0.7988719999557361	2	49	618122.3871	68.75	0.4943043999373913	1	0
256.63810640003067	0.7978382000001147	2	49	618123.3144	87.5	0.6227196999825537	1	0
257.4359446000308	0.7996815000660717	2	49	618124.2645	93.75	0.7750081999693066	2	0
258.23562610009685	0.8018472999101505	2	49	618125.1231	87.5	0.8339401999255642	2	0
259.0374734	0.7965909000486135	1	0	0	0	0	0	0
259.8340643000556	0.7965600000461563	2	49	618126.8523	75	0.9646497999783605	2	0
260.6306243001018	0.8004338999744505	2	49	618127.4454	100	0.7612536998931319	1	0
261.4310582000762	0.7983937999233603	2	49	618128.2642	93.75	0.7796262999763712	2	0
262.2294519999996	0.7954361001029611	2	49	618129.1234	87.5	0.8404440000886098	2	0
263.02488810010254	0.8020555999828503	2	49	618129.9332	87.5	0.8547640999313444	2	0
263.8269437000854	0.7953729999717325	2	49	618130.7127	87.5	0.8322055999888107	2	0
264.6223167000571	0.8043159999651834	2	49	618131.5532	81.25	0.8773616999387741	2	0
265.4266327000223	0.8045558000449091	2	49	618132.1815	93.75	0.7012955	1	0
266.2311885000672	0.7960421999450773	2	49	618132.9566	93.75	0.6718994999537244	1	0
267.0272307000123	0.7972504000645131	1	49	618133.6386	75	0.5578353999881074	1	0
267.8244811000768	0.7971255999291316	2	49	618134.5645	93.75	0.686509	1	0
268.62160670000594	0.7971941001014784	2	49	618135.3497	93.75	0.6745484001003206	1	0
269.4188008001074	0.7967744999332353	2	49	618136.0626	81.25	0.5902036998886615	1	0
270.21557530004065	0.7979692000662908	2	49	618136.8229	75	0.5537938000634313	1	0
271.01354450010695	0.7983297999016941	2	49	618137.8246	100	0.7575127999298275	1	0
271.81187430000864	0.8079158	1	0	0	0	0	0	0
272.6197901000269	0.8007694999687374	2	49	618139.3916	93.75	0.7182132999878377	1	0
273.4205595999956	0.7973413000581786	2	49	618140.1665	93.75	0.6924210001016036	1	0
274.2179009000538	0.7986146999755874	2	49	618140.9177	87.5	0.6462310999631882	1	0
275.0165156000294	0.7963842	2	49	618141.7157	87.5	0.6456436000298709	1	0
275.8128998000175	0.7972526	1	0	0	0	0	0	0
276.61015240009874	0.7975304999854416	2	49	618143.4358	93.75	0.7720785998972133	2	0
277.4076829000842	0.8016752999974415	2	49	618144.1907	100	0.7294456999516115	1	0
278.2093582000816	0.8030368000036106	2	49	618145.0259	100	0.7629446999635547	1	0
279.01239500008523	0.7969323999714106	2	49	618145.7958	100	0.7298241999233142	1	0
279.80932740005665	0.8031847999664024	1	0	0	0	0	0	0
280.61251220002305	0.7978396	2	49	618147.4709	93.75	0.8048241999931633	2	0
281.4103518000338	0.7978726000292227	2	49	618148.3111	87.5	0.8471653000451624	2	0
282.20822440006305	0.8061908000381663	1	0	0	0	0	0	0
283.0144152001012	0.8048652999568731	2	49	618149.7634	93.75	0.6954409	1	0
283.8192805000581	0.7969857000280172	2	49	618150.655	93.75	0.7821608999511227	2	0
284.6162662000861	0.7965839999960735	2	49	618151.5829	81.25	0.9131034999154508	2	0
285.4128502000822	0.7964605999877676	2	49	618152.1929	100	0.7264807	1	0
286.20931080006994	0.7988950000144541	1	49	618152.9393	93.75	0.6764279999770224	1	0
287.0082058000844	0.8007356999441981	2	49	618153.8172	100	0.7554562999866903	1	0
287.8089415000286	0.7985791000537574	2	49	618154.6139	100	0.7513919	1	0
288.60752060008235	0.7983438	2	49	618155.4101	100	0.7490779	1	0
289.40586440009065	0.7973251999355853	1	0	0	0	0	0	0
290.20318960002623	0.7971747000701725	2	49	618156.9962	100	0.7394621999701485	1	0
291.0003643000964	0.7956517	2	49	618157.8254	93.75	0.7715150999138132	2	0
291.7960160000948	0.7989011999452487	2	49	618158.5765	100	0.7269580999854952	1	0
292.5949172000401	0.7981216000625864	2	49	618159.3292	93.75	0.6807017000392079	1	0
293.39303880010266	0.7966434999834746	2	49	618160.0741	87.5	0.6274875999661162	1	0
294.18968230008613	0.8003656999208033	2	49	618160.9693	100	0.7260633999248967	1	0
294.99004800000694	0.7979941	2	49	618161.8193	93.75	0.7757065000478178	2	0
295.7880421	0.7970006000250578	2	49	618162.6635	87.5	0.8218797000590712	2	0
296.58504270005506	0.7967152999481186	2	49	618163.4223	93.75	0.7836914999643341	2	0
297.3817580000032	0.8015840000007302	1	0	0	0	0	0	0
298.1833420000039	0.7999589000828564	2	49	618165.0694	87.5	0.8324764	2	0
298.98330090008676	0.7954509999835864	2	49	618165.8764	87.5	0.8395224999403581	2	0
299.77875190007035	0.7952064999844879	2	49	618166.5845	100	0.7521734000183642	1	0
300.57395840005483	0.7970239999704063	2	49	618167.3089	93.75	0.6814359000418335	1	0
301.37098240002524	0.7977074000518769	2	49	618168.0978	87.5	0.6732316999696195	1	0
302.1686898000771	0.8013000999344513	2	49	618168.9347	93.75	0.7124585999408737	1	0
302.96998990001157	0.8002829999895766	2	49	618169.8622	87.5	0.8386424999916926	2	0
303.77027290000115	0.8002328000729904	2	49	618170.5637	100	0.7398648000089452	1	0
304.57050570007414	0.7997061000205576	2	49	618171.271	87.5	0.6469045999692753	1	0
305.3702118000947	0.8011563000036404	2	49	618172.1037	93.75	0.6799406999489293	1	0
306.17136810009833	0.7971979998983443	2	49	618172.7987	81.25	0.5737618999555707	1	0
306.9685660999967	0.7956320000812411	1	49	618173.5755	75	0.5534145	1	0
307.7641981000779	0.7954122999217361	1	49	618174.4487	87.5	0.6309455999871716	1	0
308.55961039999966	0.8006454000715166	2	49	618175.3847	100	0.7715345000615343	1	0
309.3602558000712	0.7955029000295326	2	49	618176.0199	81.25	0.6060763000277802	1	0
310.1557587001007	0.7978208999847993	1	49	618176.8058	81.25	0.5964958999538794	1	0
310.9535796000855	0.7991031999699771	1	49	618177.7419	100	0.7347219999646768	1	0
311.7526828000555	0.8076124000363052	2	49	618178.8218	68.75	1.0155333000002429	2	0
312.5602952000918	0.8012296999804676	2	0	0	0	0	0	0
313.36152490007225	0.7951694999355823	2	49	618179.837	62.5	0.4218999999575317	1	0
314.15669440000784	0.7944177000317723	2	49	618180.9919	93.75	0.7816466999938712	2	0
314.9511121000396	0.7963521999772638	1	0	0	0	0	0	0
315.7474643000169	0.7982097000349313	2	49	618182.5319	100	0.7309295000741258	1	0
316.5456740000518	0.7947078000288457	2	49	618183.3461	100	0.7468738999450579	1	0
317.34038180008065	0.7960712	2	49	618184.0438	87.5	0.6499058000044897	1	0
318.1364530000137	0.7967323	2	49	618184.9823	93.75	0.7922535000834614	2	0
318.9331853000913	0.7958952	2	49	618185.7791	93.75	0.7923398999264464	2	0
319.7290805000812	0.7980632999679074	1	0	0	0	0	0	0
320.5271438000491	0.7964169000042602	2	49	618187.308	100	0.7272978000110015	1	0
321.32356070005335	0.7968569999793544	2	49	618188.0162	87.5	0.6390701000345871	1	0
322.1204177000327	0.8032343999948353	2	49	618188.8374	87.5	0.6634769999654964	1	0
322.92365210002754	0.7985587000148371	2	49	618189.6072	87.5	0.6299803999718279	1	0
323.7222108000424	0.7959971000673249	2	49	618190.3645	81.25	0.5887084000278264	1	0
324.5182079001097	0.7978011999512091	2	49	618191.1791	81.25	0.6073224999709055	1	0
325.3160091000609	0.7957294000079855	2	49	618192.1508	93.75	0.7812538000289351	2	0
326.1117385000689	0.7967060999944806	2	49	618192.8653	93.75	0.6999666999327019	1	0
326.9084446000634	0.7994666999438778	2	49	618193.7177	100	0.7556847999803722	1	0
327.70791130000725	0.7990804000291973	2	49	618194.5554	93.75	0.7939772000536323	2	0
328.50699170003645	0.7972332000499591	1	0	0	0	0	0	0
329.3042249000864	0.7993955999845639	1	0	0	0	0	0	0
330.1036205	0.7968684999505058	2	49	618197.0036	87.5	0.8464612000389025	2	0
330.9004890000215	0.8008689000271261	1	49	618197.7374	93.75	0.7833665000507608	2	0
331.7013579000486	0.7977055000374094	2	49	618198.8554	56.25	1.100505799986422	2	0
332.4990634	0.7996738000074401	2	49	618199.4237	81.25	0.8710782999405637	2	0
333.29873720009346	0.7972016999265179	2	49	618200.0606	93.75	0.7082781000062823	1	0
334.0959389	0.8015622000675648	2	49	618200.7431	81.25	0.5936269999947399	1	0
334.89750110008754	0.7979331999085844	2	49	618201.6047	87.5	0.6536894999444485	1	0
335.6954342999961	0.7970486000413075	1	49	618202.2876	75	0.5385921000270173	1	0
336.49248290003743	0.8112253000726923	2	49	618203.3247	100	0.7786228000186384	1	0
337.3037082001101	0.8138316998956725	2	49	618204.0518	93.75	0.6945096	1	0
338.1175399000058	0.7982782000908628	2	49	618204.8577	93.75	0.6865886	1	0
338.91581810009666	0.7955270999809727	1	49	618205.6856	93.75	0.7162650999380276	1	0
339.71134520007763	0.8040708999615163	2	49	618206.4901	100	0.7251609999220818	1	0
340.51541610003915	0.7983667000662535	2	49	618207.369	93.75	0.8000340999569744	2	0
341.3137828001054	0.8001960999099538	2	49	618208.2427	81.25	0.8754024999216199	2	0
342.11397890001535	0.8026659	2	49	618208.9983	87.5	0.8307499000802636	2	0
342.91664480010513	0.8070328999310732	2	49	618209.6831	93.75	0.7129119999008253	1	0
343.7236777000362	0.801975	1	49	618210.549	100	0.7717536999844015	1	0
344.5256527001038	0.7980186999775469	2	49	618211.4822	81.25	0.9029948998941109	2	0
345.32367140008137	0.7977589	2	49	618212.1999	93.75	0.8227135	2	0
346.1214303000597	0.8002732000313699	2	49	618212.9449	100	0.7699653999879956	1	0
346.9217035000911	0.7987086999928579	2	49	618213.687	93.75	0.7117105999495834	1	0
347.72041220008396	0.7998936999356374	2	49	618214.5832	93.75	0.8091954999836162	2	0
348.5203059000196	0.7991567000281066	2	49	618215.3219	100	0.7480624000309035	1	0
349.3194626000477	0.8086990000447258	2	49	618216.1402	100	0.7671725	1	0
350.1281616000924	0.8038430999731645	2	49	618216.8994	93.75	0.7176672999048606	1	0
350.9320047000656	0.7985599000239745	2	49	618217.6351	87.5	0.6495584000367671	1	0
351.73056460008956	0.8008743	2	49	618218.3796	81.25	0.5954460999928415	1	0
352.5314389000414	0.7974426000146195	2	49	618219.3353	100	0.7503475	1	0
353.3288815	0.8005517999408767	2	49	618220.0983	93.75	0.7158534999471158	1	0
354.1294332999969	0.8026202000910416	1	49	618220.9304	100	0.7474621000001207	1	0
354.93205350008793	0.7987539999885485	2	49	618221.7063	93.75	0.7207039999775589	1	0
355.7308075000765	0.8035733	2	49	618222.6015	93.75	0.8171774999937043	2	0
356.53438080009073	0.7958956999937072	2	49	618223.3273	100	0.7393354999367148	1	0
357.33027650008444	0.8008571999380365	1	0	0	0	0	0	0
358.1311337000225	0.8079261999810115	2	49	618224.9154	93.75	0.7307521000038832	1	0
358.9390599000035	0.7975667000282556	2	49	618225.6475	87.5	0.6549201000016183	1	0
359.73662660003174	0.7976271000225097	2	49	618226.4744	93.75	0.6841822999995202	1	0
360.53425370005425	0.7979818000458181	2	49	618227.3724	93.75	0.7845931999618188	2	0
361.33223550010007	0.7968777999049053	2	49	618228.1005	93.75	0.7146815999876708	1	0
362.1291133	0.8019554000347853	2	49	618228.8156	87.5	0.6329061000142246	1	0
362.93106870003976	0.7991238000104204	2	49	618229.6544	87.5	0.6697592999553308	1	0
363.7301925000502	0.8025952000170946	1	0	0	0	0	0	0
364.5327877000673	0.8104091000277549	2	49	618231.3134	93.75	0.7270516999997199	1	0
365.34319680009503	0.7974109000060707	2	49	618232.0345	87.5	0.6377710999222472	1	0
366.1406077001011	0.8062386999372393	2	49	618232.7175	68.75	0.5233723999699578	1	0
366.94684640003834	0.8022391999838874	2	49	618233.7395	100	0.7391173000214621	1	0
367.7490856000222	0.8007136000087485	2	49	618234.5677	100	0.7650492	1	0
368.5497992	0.8037157000508159	2	49	618235.2966	93.75	0.6932460999814793	1	0
369.3535149000818	0.8011521999724209	2	49	618236.0676	87.5	0.6605422999709845	1	0
370.1546671000542	0.7980279000476003	2	49	618236.9038	93.75	0.6955705999862403	1	0
370.9526950001018	0.8124780999496579	2	49	618237.7167	93.75	0.7104456	1	0
371.76517310005147	0.8136059	2	49	618238.5067	93.75	0.6879834999563172	1	0
372.57877900009044	0.8040676999371499	2	49	618239.394	100	0.7616697999183089	1	0
373.3828467000276	0.7956130000529811	2	49	618240.2919	87.5	0.8555153000634164	2	0
374.17845970008057	0.7965991999953985	1	49	618241.4298	43.75	1.1978039999958128	2	0
374.97505890007596	0.7987533999839798	1	0	0	0	0	0	0
375.77381230005994	0.7958039999939501	2	49	618242.695	87.5	0.8676003000000492	2	0
376.5696163000539	0.8016095999628305	2	49	618243.385	100	0.7618533000349998	1	0
377.3712259000167	0.7959762000245973	2	49	618244.0699	87.5	0.6450998	1	0
378.1672021000413	0.7991000000620261	2	49	618245.0362	93.75	0.8154781999764964	2	0
378.96630210010335	0.8015960999764502	2	49	618245.8539	87.5	0.8340224	2	0
379.7678982000798	0.7992024	2	49	618246.5222	93.75	0.7007075999863446	1	0
380.56710060010664	0.7997862999327481	2	49	618247.2578	87.5	0.6371408998966217	1	0
381.3668869000394	0.7972541999770328	2	49	618248.0461	87.5	0.6256562999915332	1	0
382.1641411000164	0.7972350000636652	2	49	618248.9091	93.75	0.6914032000349835	1	0
382.9613761000801	0.8009425000054762	2	49	618249.7522	100	0.7372356000123546	1	0
383.76231860008556	0.7973310999805108	2	49	618250.7696	75	0.9537032999796793	2	0
384.5596497000661	0.7959300000220537	1	0	0	0	0	0	0
385.35557970008813	0.7991404000204057	2	49	618252.1817	93.75	0.7726066999603063	2	0
386.15472010010853	0.7955604000017047	2	49	618252.967	100	0.7587752999970689	1	0
386.95028050011024	0.7964706999482587	2	49	618253.7043	93.75	0.7004754	1	0
387.7467512000585	0.8028319	2	49	618254.4781	87.5	0.6778264000313357	1	0
388.5495831000153	0.8197730000829324	1	0	0	0	0	0	0
389.36935610009823	0.8002308999421075	2	49	618256.2935	87.5	0.8706001	2	0
390.16958700004034	0.7970566999865696	2	49	618256.9171	93.75	0.6939563000341877	1	0
390.9666437000269	0.7972216000780463	2	49	618257.6315	81.25	0.6113299999851733	1	0
391.76386530010495	0.8030838998965919	2	49	618258.5825	100	0.7650593	1	0
392.56694920000155	0.7990385	2	49	618259.2335	81.25	0.6130501000443473	1	0
393.36598770006094	0.8037582000251859	2	49	618260.0256	81.25	0.6060459000291303	1	0
394.1697459000861	0.8015109999105334	2	49	618260.9095	93.75	0.6861605999292806	1	0
394.97125689999666	0.7962677	2	49	618261.5838	75	0.5589981001103297	1	0
395.7675246	0.7964285	2	49	618262.4906	87.5	0.6695040999911726	1	0
396.56395310000516	0.8008726000552997	2	49	618263.4197	93.75	0.8022334000561386	2	0
397.36482570006046	0.8045401000417769	2	49	618264.2277	93.75	0.8093318999744952	2	0
398.16936580010224	0.8146833999780938	2	49	618264.9974	100	0.7744922	1	0
398.98404920008034	0.8015605999389663	2	49	618265.8948	87.5	0.8572017999831587	2	0
399.7856098000193	0.8012679000385106	2	49	618266.5837	100	0.7445610000286251	1	0
400.5868777000578	0.7948181999381632	1	49	618267.235	81.25	0.5945961000397801	1	0
401.3816959	0.8021609000861645	2	49	618268.0816	87.5	0.6463617000263184	1	0
402.18385680008214	0.8051726999692619	2	49	618268.8408	81.25	0.6034313	1	0
402.9890295000514	0.7984838000265881	2	49	618269.6138	75	0.5712330000242218	1	0
403.7875133	0.8120185999432579	2	49	618270.3807	75	0.5396426999941468	1	0
404.59953190002125	0.7971532000228763	2	49	618271.2729	81.25	0.6197805000701919	1	0
405.3966851000441	0.7959332000464201	2	49	618272.375	75	0.9247541000368074	2	0
406.19261830009054	0.7964437	2	49	618272.9798	100	0.7336723000044003	1	0
406.98906200006604	0.7963318999391049	2	49	618273.7581	93.75	0.7154652000172064	1	0
407.78539390000515	0.7980070000048727	2	49	618274.637	93.75	0.7980909000616521	2	0
408.5834009	0.7979794000275433	2	49	618275.298	87.5	0.6610778000904247	1	0
409.38138030003756	0.7953925000037998	2	49	618276.0432	81.25	0.6082841	1	0
410.17677280004136	0.7990913	2	49	618276.943	93.75	0.7126984000205994	1	0
410.97586410003714	0.7969553000293672	2	49	618277.7181	93.75	0.6886639000149444	1	0
411.7728194000665	0.8016716999700293	2	49	618278.4522	87.5	0.6257963000098243	1	0
412.57449110003654	0.7988134999759495	2	49	618279.2907	87.5	0.6626146000344306	1	0
413.3733046000125	0.8009122000075877	2	49	618280.0891	87.5	0.6622282000025734	1	0
414.1742168000201	0.7967845000093803	2	49	618281.0654	87.5	0.8375919000245631	2	0
414.97100130002946	0.8011911000357941	2	49	618281.7553	100	0.7307579000480473	1	0
415.77219240006525	0.7985061999643221	1	49	618282.5251	93.75	0.6993521000258625	1	0
416.5706986000296	0.8023778999922797	2	49	618283.3573	100	0.7330567999742925	1	0
417.37307650002185	0.7969347999896854	1	49	618284.1531	100	0.7264944000635296	1	0
418.17001130001154	0.8042036	2	49	618284.9933	100	0.7697372999973595	1	0
418.9742149000522	0.8012978000333533	2	49	618285.7303	93.75	0.7025435999967158	1	0
419.7755127000855	0.7958957999944687	1	0	0	0	0	0	0
420.5714085	0.7972734000068158	2	49	618287.4265	93.75	0.8015007999492809	2	0
421.3686819000868	0.8002038999693468	2	49	618288.2593	87.5	0.8371065999381244	2	0
422.16888580005616	0.8004234000109136	2	49	618288.9608	100	0.7383662000065669	1	0
422.9693092000671	0.8013668999774382	2	49	618289.9575	75	0.9346035999478772	2	0
423.7706761000445	0.8003732999786735	2	49	618290.6882	87.5	0.8640178999630734	2	0
424.5710494000232	0.8195251000579447	2	49	618291.5264	81.25	0.9017657	2	0
425.39057450008113	0.7986402999376878	2	49	618292.2086	100	0.7645065999822691	1	0
426.1892148000188	0.7972912000259385	2	49	618292.8835	87.5	0.6407298999838531	1	0
426.98650600004476	0.8005581	2	49	618293.7056	87.5	0.6655759999994189	1	0
427.7870641000336	0.8020004000281915	2	49	618294.6208	93.75	0.7802325000520796	2	0
428.5890645000618	0.7975603999802843	1	0	0	0	0	0	0
429.3866249000421	0.8047463999828324	2	0	0	0	0	0	0
430.1913713000249	0.8157952000619844	2	49	618297.1376	81.25	0.8927248000400141	2	0
431.0071665000869	0.7955526999430731	2	49	618297.8545	93.75	0.7938115999568254	2	0
431.80271920002997	0.7989489000756294	2	49	618298.5999	100	0.7436514999717474	1	0
432.6016681001056	0.7965538999997079	2	49	618299.399	100	0.7438040999695659	1	0
433.3982220001053	0.7987188999541104	2	49	618300.0951	87.5	0.6433610999956727	1	0
434.1969409000594	0.8052495999727398	2	49	618300.8767	81.25	0.6261674000415951	1	0
435.00219050003216	0.7995734000578523	2	49	618301.759	93.75	0.7032358000287786	1	0
435.8017639	0.8019192999927327	2	49	618302.8622	68.75	1.0068442999618128	2	0
436.60368320008274	0.8001914999913424	2	49	618303.4526	93.75	0.7953922000015154	2	0
437.4038747000741	0.8174070999957621	2	49	618304.1701	93.75	0.7126281999517232	1	0
438.22128180006985	0.8021405999315903	1	49	618304.971	93.75	0.6961644999682903	1	0
439.02342240000144	0.8001479000085965	1	49	618305.8309	100	0.7539708000840619	1	0
439.82357030001003	0.7971641999902204	2	49	618306.6111	100	0.7339485000120476	1	0
440.62073450000025	0.7987034000689164	2	49	618307.429	100	0.7547567000146955	1	0
441.41943790006917	0.8012511000270024	2	49	618308.1081	87.5	0.6350929000182077	1	0
442.2206890000962	0.8011681	2	49	618308.8812	81.25	0.6069924999028444	1	0
443.02185710007325	0.7976233999943361	2	49	618309.5342	62.5	0.45878699992317706	1	0
443.8194805000676	0.8047051000175998	2	49	618310.6582	93.75	0.7851814000168815	2	0
444.6241856000852	0.7999370999168605	2	49	618311.3612	93.75	0.6834559999406338	1	0
445.42412270000204	0.7960285000735894	1	0	0	0	0	0	0
446.22015120007563	0.8008724999381229	2	49	618313.0307	100	0.7569828999694437	1	0
447.02102370001376	0.7962028000038117	2	49	618313.7531	93.75	0.6785160000436008	1	0
447.81722650001757	0.7982372000114992	2	49	618314.6651	93.75	0.7943224	2	0
448.61546370002907	0.7973910999717191	2	49	618315.4621	93.75	0.7931135999970138	2	0
449.4128548000008	0.8020708000985906	2	49	618316.3203	87.5	0.8539170000003651	2	0
450.2149256000994	0.7979235999519005	2	49	618316.9854	93.75	0.7169255999615416	1	0
451.0128492000513	0.7987190999556333	2	49	618317.9414	81.25	0.8750116999726743	2	0
451.8115683000069	0.8070363000733778	2	49	618318.6553	93.75	0.7902024000650272	2	0
452.6186046000803	0.8098271	2	49	618319.2749	81.25	0.6027038999600336	1	0
453.4284317001002	0.7988599999807775	2	49	618320.2004	93.75	0.7184407999739051	1	0
454.22729170008097	0.8095351	2	49	618320.9505	87.5	0.6696739	1	0
455.03682680008933	0.7981075999559835	2	49	618321.8506	100	0.7602054999442771	1	0
455.8349344000453	0.8073124999646097	2	49	618322.6014	93.75	0.7128753999713808	1	0
456.6422469000099	0.7946481000399217	2	49	618323.4356	100	0.7398122000740841	1	0
457.43689500004984	0.8007333000423387	2	49	618324.4136	81.25	0.9231181000359356	2	0
458.2376283000922	0.7985738000134006	2	49	618325.1206	87.5	0.8294465	2	0
459.0362021001056	0.8052036999724805	2	49	618325.9116	93.75	0.8218093999894336	2	0
459.84140580007806	0.8159554000012577	2	49	618326.6036	93.75	0.7086267999839038	1	0
460.6573612000793	0.8009700999828056	2	49	618327.3766	87.5	0.6657217999454588	1	0
461.4583313000621	0.7976240999996662	2	49	618328.1466	87.5	0.6347214999841526	1	0
462.2559554000618	0.7997333999956027	2	49	618329.0708	100	0.7612985000014305	1	0
463.0556888000574	0.8014608999947086	2	49	618329.9117	93.75	0.8024854999966919	2	0
463.8571497000521	0.7962079000426456	2	49	618330.6487	100	0.7379875000333413	1	0
464.65335760009475	0.7998956999508664	2	49	618331.3913	93.75	0.6843886999413371	1	0
465.4532533000456	0.8047214000253007	2	49	618332.223	93.75	0.7161732000531629	1	0
466.2579747000709	0.7997940999921411	2	49	618333.0148	93.75	0.7032269999617711	1	0
467.05776880006306	0.8004121000412852	2	49	618333.8162	93.75	0.7048740000464022	1	0
467.85818090010434	0.8049327000044286	2	49	618334.8312	81.25	0.9194244	2	0
468.6631136001088	0.7960207998985425	2	49	618335.5074	93.75	0.7907817999366671	2	0
469.4591344000073	0.7977917999960482	2	49	618336.3661	87.5	0.8533869000384584	2	0
470.25692620000336	0.8008354000048712	2	49	618337.0372	100	0.726717	1	0
471.05776160000823	0.7974086999893188	2	49	618337.8075	93.75	0.6962311000097543	1	0
471.85517029999755	0.8010343000059947	1	0	0	0	0	0	0
472.65620460000355	0.7995147000765428	2	49	618339.3142	81.25	0.6044149	1	0
473.4557193000801	0.8130628	2	49	618340.1401	87.5	0.6308358999667689	1	0
474.26878210005816	0.8117785999784246	2	49	618340.9852	87.5	0.6628507999703288	1	0
475.0805607000366	0.800383	2	49	618341.9352	93.75	0.8010511000175029	2	0
475.8809437000891	0.7974985999753699	2	49	618342.7522	93.75	0.8177153000142425	2	0
476.6784423000645	0.8038648000219837	2	49	618343.3657	87.5	0.6337305000051856	1	0
477.4823071000865	0.805219	2	49	618344.2563	93.75	0.7203986999811605	1	0
478.28752610005904	0.8014659000327811	2	49	618345.0203	93.75	0.6792386999586597	1	0
479.0889920000918	n/a	0	49	618345.8643	100	0.7217180000152439	1	0