onset	duration	cue	constant1	timestamp	stimulus_coherence	response_time	response	constant2
20.510112287145603	0.8151117000015802	2	49	29650.69615	93.75	0.8319899000016449	2	0
21.325223987147183	0.8143381999980193	2	49	29651.4281	100	0.7488314000001992	1	0
22.139562187145202	0.8111773000018729	2	49	29652.17413	93.75	0.6805223000010301	1	0
22.950739487147075	0.8210274	2	49	29652.88195	75	0.5771625999987009	1	0
23.771766887144622	0.8104668000014499	2	49	29653.83815	93.75	0.7123374000002514	1	0
24.582233687146072	0.8165249000012409	2	49	29654.58854	87.5	0.6522551999987627	1	0
25.398758587147313	0.8212397999996028	2	49	29655.41421	87.5	0.6614023999973142	1	0
26.219998387146916	0.8143624000003911	2	49	29656.35823	100	0.7841779999980645	1	0
27.034360787147307	0.8109144999980344	2	49	29657.26534	87.5	0.8769302999971842	2	0
27.84527528714534	0.8187882999991416	2	49	29657.88826	87.5	0.6889310000005935	1	0
28.664063587144483	0.8181921000032162	2	49	29658.73025	93.75	0.7121412	1	0
29.48225569	0.8124951999998302	2	49	29659.48861	87.5	0.6523033	1	0
30.29475088714753	0.8182917999984056	2	49	29660.27243	81.25	0.6236255999974674	1	0
31.113042687145935	0.8141982999986794	2	49	29661.16821	93.75	0.7011186000017915	1	0
31.927240987144614	0.8174477000029583	1	49	29661.92026	87.5	0.6389712000018335	1	0
32.74468868714757	0.8131584999973711	2	49	29662.81758	93.75	0.7188399999977264	1	0
33.557847187144944	0.8221821000006457	2	49	29663.62243	93.75	0.7105338000001211	1	0
34.38002928714559	0.8194756000011694	1	0	0	0	0	0	0
35.19950488714676	0.8150361000007251	2	49	29665.05679	68.75	0.5032394000008935	1	0
36.014540987147484	0.8084692999982508	2	49	29665.99144	81.25	0.6228480999998283	1	0
36.823010287145735	0.8272469000003184	2	49	29666.92061	93.75	0.7435484000016004	1	0
37.65025718714605	0.8133146000000124	2	49	29667.73355	93.75	0.7292458000010811	1	0
38.463571787146066	0.8198442	2	49	29668.56854	100	0.7509190999990096	1	0
39.28341598714542	0.8134368	2	49	29669.48938	87.5	0.8519110000015644	2	0
40.09685279	0.8199254000028304	2	49	29670.44544	75	0.9945415000001958	2	0
40.91677818714743	0.8187814999982947	2	49	29671.22758	75	0.9567572999985714	2	0
41.735559687145724	0.8178821000001335	2	49	29671.98567	81.25	0.8960613000017474	2	0
42.55344178714586	0.8154165999985707	2	49	29672.97986	62.5	1.072372999999061	2	0
43.36885838714443	0.8077129000012064	2	49	29673.5437	93.75	0.8207947000009881	2	0
44.176571287145634	0.8185499999999593	2	49	29674.25288	93.75	0.7222624000023643	1	0
44.995121287145594	0.8128486000023258	2	49	29675.08697	100	0.7377972	1	0
45.80796988714792	0.8124342999981309	2	49	29675.91376	100	0.7517381	1	0
46.62040418714605	0.8150900000000547	2	49	29676.67079	93.75	0.6963409999989381	1	0
47.435494187146105	0.8182498	2	49	29677.58192	93.75	0.7923813000015798	2	0
48.253743987144844	0.8123442	2	49	29678.41029	93.75	0.8024944999997388	2	0
49.06608818714449	0.8157303000007232	2	49	29679.54886	56.25	1.128717700001289	2	0
49.88181848714521	0.8161094000024605	2	49	29680.07982	87.5	0.8439560000006168	2	0
50.69792788714767	0.8203932999967947	2	49	29680.92283	87.5	0.8708506999973906	2	0
51.518321187144466	0.8153575000033015	1	49	29681.60524	100	0.7328646000023582	1	0
52.33367868714777	0.8145735	2	49	29682.46459	100	0.7768604999982927	1	0
53.14825218714759	0.8143555999995442	2	49	29683.36408	87.5	0.8617736999985937	2	0
53.962607787147135	0.8271970999994664	2	49	29684.13411	93.75	0.8174519999993208	2	0
54.78980489	0.8152856999986398	2	49	29685.04107	81.25	0.8972109	2	0
55.60509058714524	0.8165941000006569	2	49	29686.03642	62.5	1.0772832000002381	2	0
56.42168469	0.8086059999986901	2	49	29686.81322	62.5	1.0374828999993042	2	0
57.23029068714459	0.8112432	2	49	29687.52906	75	0.9447166	2	0
58.041533887146215	0.8185892000001331	1	0	0	0	0	0	0
58.86012308714635	0.8191034999981639	2	49	29688.74505	68.75	0.5308795999990252	1	0
59.67922658714451	0.8155902000034985	2	49	29689.66238	87.5	0.629108	1	0
60.49481678714801	0.8133678999984113	2	49	29690.31445	62.5	0.46558229999936884	1	0
61.30818468714642	0.8148723000012978	2	49	29691.17132	68.75	0.5090875999994751	1	0
62.12305698714772	0.8219482999993488	2	49	29692.27537	93.75	0.7982588999984728	2	0
62.94500528714707	0.8201311999982863	2	49	29693.21652	81.25	0.9174664	2	0
63.765136487145355	0.8128719000014826	1	0	0	0	0	0	0
64.57800838714684	0.811081	2	49	29694.42533	68.75	0.49327179999818327	1	0
65.38908938714667	0.8180021	1	49	29695.27707	68.75	0.5339315999990504	1	0
66.20709148714741	0.8123029999987921	2	49	29696.29629	100	0.7351441	1	0
67.01939449	0.8211431999989145	2	49	29697.28164	81.25	0.9081915999995545	2	0
67.84053768714512	0.8177235000002838	1	0	0	0	0	0	0
68.65826119	0.8130498999998963	2	49	29698.5205	68.75	0.5081892000016524	1	0
69.47131109	0.8196126	2	49	29699.33652	68.75	0.5111605000020063	1	0
70.29092368714555	0.8161691999994218	2	49	29700.38396	100	0.7389904000010574	1	0
71.10709288714497	0.8151323000020056	2	49	29701.41576	75	0.9546169000022928	2	0
71.92222518714698	0.8177546999977494	2	49	29702.32042	62.5	1.0441414999986591	2	0
72.73997988714473	0.8093872	2	49	29703.16778	62.5	1.0737531000013405	2	0
73.54936709	0.8164736999970046	2	49	29703.96257	62.5	1.0591515999985859	2	0
74.36584079	0.8152754	2	49	29704.65968	81.25	0.9397889000028954	2	0
75.18111618714465	0.8185369000020728	2	49	29705.55337	68.75	1.018208700003015	2	0
75.99965308714673	0.8157113999986905	2	49	29706.23581	87.5	0.8821080999987316	2	0
76.81536448714542	0.8160898000023735	2	49	29707.12852	75	0.9591018999999505	2	0
77.63145428714779	0.8152585999996518	1	0	0	0	0	0	0
78.44671288714744	0.8185749999975087	2	49	29708.24087	62.5	0.44010489999709534	1	0
79.26528788714495	0.8159038000012515	2	49	29709.12087	68.75	0.5015363000020443	1	0
80.08119169	0.8184510999999475	2	49	29710.29613	87.5	0.8608858000006876	2	0
80.89964278714615	0.8135387000002083	1	0	0	0	0	0	0
81.71318148714636	0.8141025000004447	2	49	29711.49682	56.25	0.4295930000007502	1	0
82.52728399	0.8168346999991627	2	49	29712.42087	75	0.5395319999988715	1	0
83.34411868714596	0.8207765000006475	2	49	29713.48412	100	0.7859520000019984	1	0
84.16489518714661	0.8187834999989718	1	49	29714.33596	93.75	0.8170185999988462	2	0
84.98367868714558	0.8163218000008783	2	0	0	0	0	0	0
85.80000048714646	0.8113859000004595	2	49	29715.92778	100	0.7737342000000353	1	0
86.61138638714692	0.8188454999981332	2	49	29716.73886	100	0.7734286999984761	1	0
87.43023188714506	0.8122562999997172	2	49	29717.63698	87.5	0.8526985999997123	2	0
88.24248818714477	0.8164148000032583	2	49	29718.30858	93.75	0.7120439000027545	1	0
89.05890298714803	0.8142246999996132	2	49	29719.36363	75	0.9506729	2	0
89.87312768714764	0.8169056999977329	2	49	29720.22001	68.75	0.9928325999972003	2	0
90.69003338714538	0.8173174	2	49	29721.14308	56.25	1.0990008000007947	2	0
91.50735079	0.8143216999997094	2	49	29722.02164	50	1.160240100001829	2	0
92.32167249	0.8185592	2	0	0	0	0	0	0
93.14023169	0.8152115	2	49	29723.00647	68.75	0.5121854	1	0
93.95544318714747	0.8145253999973647	2	49	29723.88046	75	0.5709628999975394	1	0
94.76996858714483	0.8147926000019652	2	49	29724.96918	87.5	0.8451585000002524	2	0
95.58476119	0.8162988000003679	2	49	29725.64931	93.75	0.7104972999986785	1	0
96.40105998714716	0.8190458999997645	2	49	29726.69958	75	0.9444742	2	0
97.22010588714693	0.8179243	2	49	29727.75871	50	1.1845586999988882	2	0
98.03803018714461	0.8110543000002508	2	49	29728.55931	50	1.1672335000002931	2	0
98.84908448714486	0.8247232000030635	2	49	29729.36336	50	1.1602235000027576	2	0
99.67380768714793	0.8205765999991854	2	0	0	0	0	0	0
100.49438428714711	0.8097048999989056	2	49	29730.49833	87.5	0.6498972999979742	1	0
101.30408918714602	0.8129926000001433	1	0	0	0	0	0	0
102.11708178714616	0.8155866000015521	1	49	29732.09163	81.25	0.6204948999984481	1	0
102.93266838714771	0.8197717999973975	2	0	0	0	0	0	0
103.75244018714511	0.8152962999993179	2	49	29733.81294	93.75	0.7064458000022569	1	0
104.56773648714443	0.8122907000033592	2	49	29734.83258	81.25	0.9107928	2	0
105.38002718714779	0.8201572999969358	2	0	0	0	0	0	0
106.20018448714472	0.8134174000006169	2	49	29736.08457	75	0.5303343000014138	1	0
107.01360188714534	0.8190790000007837	2	49	29737.45011	62.5	1.082462200000009	2	0
107.83268088714613	0.8141466000015498	2	49	29738.04345	87.5	0.8567183000013756	2	0
108.64682748714768	0.8144498000001477	2	49	29739.24114	43.75	1.2402595999992627	2	0
109.46127728714782	0.8181721999972069	2	0	0	0	0	0	0
110.27944948714503	0.8134373000029882	2	49	29740.80775	50	1.1742521000014676	2	0
111.09288678714802	0.8231459999988147	2	0	0	0	0	0	0
111.91603278714683	0.8165881999993871	2	49	29741.85372	75	0.5836343000009947	1	0
112.73262098714622	0.8176693999994313	1	0	0	0	0	0	0
113.55029038714565	0.8153313000002527	2	49	29743.24985	50	0.3455126000008022	1	0
114.3656216871459	0.8092123999995238	2	49	29744.23387	68.75	0.5141962000016065	1	0
115.17483408714543	0.8180735	2	49	29745.103	75	0.5741115000018908	1	0
115.99290758714778	0.8169116999997641	2	49	29746.05161	93.75	0.7046522999989975	1	0
116.80981928714755	0.8138478	2	49	29747.05777	81.25	0.8939046999985294	2	0
117.62366708714762	0.8143251000001328	2	49	29747.89609	81.25	0.9183687999975518	2	0
118.43799218714776	0.8176542999972298	2	49	29748.8997	56.25	1.1076555999970878	2	0
119.25564648714499	0.8172418	2	0	0	0	0	0	0
120.07288828714445	0.8139961000015319	2	49	29750.025	81.25	0.5980618000030518	1	0
120.88688438714598	0.8154359000000113	1	0	0	0	0	0	0
121.7023203	0.8182773000007728	2	49	29751.93631	87.5	0.8799405999998271	2	0
122.52059758714677	0.8143988000010722	2	49	29753.08216	43.75	1.207514	2	0
123.33499638714784	0.8213566999984323	2	0	0	0	0	0	0
124.15635308714627	0.8150617999999668	2	49	29754.03438	68.75	0.5239739999997255	1	0
124.97141488714624	0.8174207999982173	2	49	29755.33913	68.75	1.0136639	2	0
125.78883568714446	0.8184209999999439	2	0	0	0	0	0	0
126.6072566871444	0.8147757000006095	2	49	29756.69452	100	0.7332124000022304	1	0
127.42203238714501	0.8153464000024542	2	49	29757.61913	87.5	0.8430456000023696	2	0
128.23737878714746	0.8114074999975855	2	49	29758.77099	50	1.1795648999977857	2	0
129.04878628714505	0.8162357000001066	2	0	0	0	0	0	0
129.86502198714516	0.8189641999997548	2	49	29759.90048	87.5	0.6814068000021507	1	0
130.6839861871449	0.8126426000017091	1	0	0	0	0	0	0
131.49662878714662	0.8153798999992432	1	49	29761.56191	93.75	0.7112354999990202	1	0
132.31200868714586	0.8189879000019573	2	0	0	0	0	0	0
133.13099658714782	0.8171303	2	49	29762.94179	62.5	0.4567431999967084	1	0
133.94812688714592	0.8134534000018903	1	49	29763.76137	62.5	0.4591967999986082	1	0
134.7615802871478	0.8146744999976363	2	49	29765.4228	31.25	1.3071701999979268	2	0
135.57625478714544	0.8172556999998051	1	0	0	0	0	0	0
136.39351048714525	0.8176869000017177	2	49	29766.93346	50	1.1859003999998095	2	0
137.21119738714697	0.8157455000000482	2	49	29767.85777	37.5	1.2925226999977895	2	0
138.02694288714702	0.8192576000001281	1	0	0	0	0	0	0
138.84620048714714	0.8137385	2	0	0	0	0	0	0
139.65993898714441	0.8150558000015735	2	49	29769.74157	93.75	0.7275776000024052	1	0
140.4749948	0.8151958000016748	1	49	29770.68458	87.5	0.8555339999984426	2	0
141.29019058714766	0.8197301999971387	2	0	0	0	0	0	0
142.1099207871448	0.8135437	2	49	29772.28185	93.75	0.8178818000014871	2	0
142.9234644871467	0.8162422999994305	2	49	29773.19971	81.25	0.9221941	2	0
143.73970678714613	0.8145801999999094	2	0	0	0	0	0	0
144.55428698714604	0.8180446000005759	2	49	29774.39966	68.75	0.49132079999981215	1	0
145.37233158714662	0.8207091000003857	2	49	29775.28475	75	0.5583678000002692	1	0
146.1930407	0.8144637999976112	2	49	29776.31614	100	0.7690507000006619	1	0
147.00750448714462	0.8201641000014206	2	49	29777.17811	93.75	0.8165555000014137	2	0
147.82766858714604	0.8126924999996845	2	49	29777.99797	93.75	0.8162492000010388	2	0
148.64036108714572	0.8124055000007502	2	49	29779.08484	56.25	1.0904265999997733	2	0
149.45276658714647	0.8150925999980245	1	0	0	0	0	0	0
150.2678591871445	0.8183129000026383	2	49	29780.2442	81.25	0.6222908000017924	1	0
151.08617208714713	0.8204890999986674	2	49	29781.25294	93.75	0.8127203000003647	2	0
151.9066611871458	0.8103195000003325	2	49	29782.00738	100	0.7466684999999416	1	0
152.71698068714613	0.8214372000002186	2	49	29782.72893	87.5	0.6579019999990123	1	0
153.53841788714635	0.8106674000009662	2	49	29783.65717	100	0.7647060999988753	1	0
154.34908528714732	0.8236932999971032	2	49	29784.54917	87.5	0.8460353999980725	2	0
155.17277858714442	0.8189424000011059	2	49	29785.24711	93.75	0.7202867000014521	1	0
155.99172098714553	0.8082541000003403	2	49	29786.15915	93.75	0.8133816000008665	2	0
156.79997508714587	0.8181102000016836	2	49	29787.17613	68.75	1.0221050000000105	2	0
157.61808528714755	0.8154398999977275	2	49	29788.04411	62.5	1.0719796999983373	2	0
158.43352518714528	0.8180467999991379	2	0	0	0	0	0	0
159.25157198714442	0.8172600000034436	2	49	29789.07125	62.5	0.4656261000018276	1	0
160.06883198714786	0.8111816999989969	1	49	29790.02811	81.25	0.6052239999989979	1	0
160.88001368714686	0.8211881999995967	2	0	0	0	0	0	0
161.70120188714645	0.8118496999995841	2	49	29791.65036	81.25	0.5951080999984697	1	0
162.51305158714604	0.8190676	2	49	29792.48529	81.25	0.6181921999996121	1	0
163.33211918714733	0.8131517000001622	2	49	29793.52532	87.5	0.8391546999991988	2	0
164.1452708871475	0.8164093999985198	2	49	29794.7213	43.75	1.2219750000003842	2	0
164.9616803	0.8204637999988336	2	0	0	0	0	0	0
165.78214408714484	0.8160977000006824	2	49	29795.71072	75	0.5745263999997405	1	0
166.59824178714553	0.8173247000013362	2	49	29797.09351	56.25	1.1412152000011702	2	0
167.41556648714686	0.8159900999999081	2	0	0	0	0	0	0
168.23155658714677	0.8114003999980923	2	49	29798.01447	62.5	0.42886039999939385	1	0
169.04295698714486	0.8125589000010223	2	49	29799.3497	75	0.9526887000029092	2	0
169.85551588714588	0.8174178000008396	1	0	0	0	0	0	0
170.67293368714672	0.8192669999989448	2	49	29801.25755	43.75	1.2305621999985306	2	0
171.49220068714567	0.8159832000019378	1	0	0	0	0	0	0
172.3081838871476	0.8128163000001223	2	49	29802.6631	68.75	1.0008644999979879	2	0
173.12100018714773	0.8200088999983564	2	49	29803.36172	87.5	0.8866723999999522	2	0
173.94100908714609	0.8145175999998173	2	49	29804.35191	62.5	1.0568504000002577	2	0
174.7555266871459	0.8135968999995384	2	49	29805.2961	50	1.1865227000016603	2	0
175.56912358714544	0.8174207000010938	2	0	0	0	0	0	0
176.38654428714653	0.8200479000006453	1	0	0	0	0	0	0
177.20659218714718	0.8151751999976113	2	49	29806.89674	50	0.33610069999849657	1	0
178.0217673871448	0.8161762000017916	2	49	29807.93263	75	0.5568147000012686	1	0
178.83794358714658	0.8218395000003511	2	49	29808.87572	87.5	0.6837258000014117	1	0
179.65978308714693	0.8115414999992936	2	49	29809.72794	93.75	0.7141043999981775	1	0
180.47132458714623	0.8113144999988435	2	49	29810.75075	81.25	0.9253744000016013	2	0
181.28263908714507	0.8146280000000843	2	0	0	0	0	0	0
182.09726708714516	0.8185327000028337	2	49	29812.27081	93.75	0.8194958	2	0
182.9157998	0.8170075999987603	2	49	29813.40153	56.25	1.1316815999998653	2	0
183.73280738714675	0.8164077000001271	2	0	0	0	0	0	0
184.54921508714688	0.8133816999979899	2	49	29814.47337	75	0.5701100999976916	1	0
185.36259678714487	0.8214157	2	49	29815.52095	93.75	0.8043045	2	0
186.18401248714508	0.8108993999994709	1	0	0	0	0	0	0
186.99491188714455	0.8208064999998896	2	49	29816.89299	75	0.5440323000002536	1	0
187.81571838714444	0.8139697000005981	2	49	29818.00176	93.75	0.8319889000013063	2	0
188.62968808714504	0.8161306000001787	2	49	29819.03531	62.5	1.0515696000002208	2	0
189.44581868714522	0.8156509000000369	2	49	29819.85602	62.5	1.0561517999994976	2	0
190.26146958714526	0.8155738	2	49	29820.81916	43.75	1.203641100000823	2	0
191.07704338714757	0.8185083999997005	1	0	0	0	0	0	0
191.89555178714727	0.8136744000003091	2	49	29821.67922	56.25	0.42962229999830015	1	0
192.70922618714758	0.8151123999996344	2	49	29822.91913	87.5	0.8558527999994112	2	0
193.5243385871472	0.8154471999987436	2	49	29823.80119	81.25	0.9227991999978258	2	0
194.33978578714596	0.8159305000008317	1	49	29824.59227	81.25	0.8984309	2	0
195.1557162871468	0.8204919999989215	2	49	29825.59846	62.5	1.0886902999991435	2	0
195.9762082871457	0.8150300000015704	2	0	0	0	0	0	0
196.79123828714728	0.8147744999987481	2	49	29826.79222	87.5	0.6469356999987212	1	0
197.60601278714603	0.8160188000001654	1	0	0	0	0	0	0
198.4220315871462	0.8162717000013799	2	0	0	0	0	0	0
199.23830328714757	0.8195513999999093	2	49	29829.51795	81.25	0.9255931999978202	2	0
200.05785468714748	0.8136945999976888	2	49	29830.26527	87.5	0.8533650999997917	2	0
200.87154928714517	0.8164657000015723	2	49	29831.12748	81.25	0.9018859999996494	2	0
201.68801498714674	0.8166334999987157	2	49	29831.80968	100	0.7676111000000674	1	0
202.50464848714546	0.8149948999998742	2	49	29832.69474	93.75	0.8360439999996743	2	0
203.31964338714533	0.8164144000002125	2	49	29833.48353	93.75	0.8098386999990907	2	0
204.13605778714555	0.8156306999990193	2	49	29834.16378	87.5	0.6736750999989454	1	0
204.95168848714457	0.8163947000030021	2	49	29834.94285	87.5	0.6371147999998357	1	0
205.76808318714757	0.8176211999998486	2	49	29835.75249	81.25	0.6303542999994534	1	0
206.58570438714742	0.8227107999991858	2	49	29836.60324	87.5	0.6634832999989158	1	0
207.4084151871466	0.8205723999999464	2	49	29837.46672	93.75	0.7042594999984431	1	0
208.22898758714655	0.8177751	2	49	29838.50206	81.25	0.9190207	2	0
209.04676268714684	0.8186411999995471	2	49	29839.25257	87.5	0.8517552999983309	2	0
209.86540388714639	0.8093531000013172	2	49	29840.18283	75	0.9633724000013899	2	0
210.6747569871477	0.8091852999968978	2	49	29841.23472	43.75	1.2059106999986398	2	0
211.4839422871446	0.8163416000024881	2	49	29841.96819	56.25	1.1302032000021427	2	0
212.3002838871471	0.8150017	1	0	0	0	0	0	0
213.1152855871478	0.8121133999993617	2	49	29843.19161	93.75	0.7222707999972044	1	0
213.92739898714717	0.8172825999972702	1	49	29843.99073	93.75	0.7092783999978565	1	0
214.74468158714444	0.8186750000022585	1	0	0	0	0	0	0
215.5633565871467	0.8196117	2	0	0	0	0	0	0
216.38296828714738	0.8163310999989335	2	49	29846.44974	93.75	0.7127192999978433	1	0
217.1992993871463	0.8189854	2	49	29847.25794	93.75	0.7045881000012741	1	0
218.01828478714742	0.8169180999975652	2	49	29848.30893	81.25	0.9365945999998075	2	0
218.8352029	0.8065935000013269	2	49	29849.22597	62.5	1.0367189999997208	2	0
219.64179638714631	0.8152775000016845	2	49	29850.10154	56.25	1.1056968999982928	2	0
220.4570739	0.8182505999975547	2	49	29850.81456	68.75	1.0034389999964333	2	0
221.27532448714555	0.8234130999990157	2	49	29851.49805	87.5	0.8686785999998392	2	0
222.09873758714457	0.8154696000019612	2	49	29852.43298	75	0.9801900000020396	2	0
222.91420718714653	0.8181469999981346	1	0	0	0	0	0	0
223.73235418714467	0.8126099000000977	2	49	29853.82505	100	0.7386500000029628	1	0
224.54496408714476	0.8113948000027449	2	49	29854.99836	56.25	1.099346200000582	2	0
225.3563588871475	0.8155221999986679	2	49	29855.8782	50	1.1677882000003592	2	0
226.17188108714618	0.8178025000015623	1	0	0	0	0	0	0
226.98968358714774	0.8335776999992959	2	49	29857.45818	62.5	1.1144505999982357	2	0
227.82326128714703	0.8335678999974334	2	0	0	0	0	0	0
228.65682918714447	0.8323374999999942	1	0	0	0	0	0	0
229.48916668714446	0.8178680000019085	2	49	29859.8123	75	0.9690884000010556	2	0
230.30703468714637	0.8225308	2	49	29860.38539	93.75	0.7243028999982926	1	0
231.12956548714646	0.8168584000013652	2	49	29861.19151	93.75	0.7078959	1	0
231.94642388714783	0.8240336999988358	1	49	29861.9232	81.25	0.6227242	1	0
232.77045758714667	0.8241234999986773	2	49	29863.31066	50	1.1861571000008553	2	0
233.59458108714534	0.8138873000025342	2	0	0	0	0	0	0
234.40846838714788	0.8161473000000115	2	49	29864.34942	81.25	0.5869023	1	0
235.2246156871479	0.8144437	2	49	29865.04564	62.5	0.4669718999975885	1	0
236.03905938714524	0.8188019000008353	1	49	29865.81473	56.25	0.42162119999920833	1	0
236.85786128714608	0.8205677	2	49	29867.25352	62.5	1.0416095000000496	2	0
237.67842898714662	0.8156352000005427	2	49	29868.04844	68.75	1.0159619000005478	2	0
238.49406418714716	0.8101083000001381	2	0	0	0	0	0	0
239.3041724871473	0.8131988999994064	2	49	29869.13757	68.75	0.4793494000005012	1	0
240.1173713871467	0.8130883000012545	2	49	29870.00479	75	0.5333657999981369	1	0
240.93045968714796	0.8107683	2	49	29871.38856	56.25	1.1040508999976737	2	0
241.74122798714598	0.8205551999999443	2	0	0	0	0	0	0
242.56178318714592	0.8090372000006028	2	49	29872.35462	62.5	0.4387877000008302	1	0
243.37082038714652	0.8158576999994693	2	49	29873.25283	68.75	0.5279627999989316	1	0
244.1866781	0.8067857999994885	2	49	29873.99791	62.5	0.45718630000192206	1	0
244.99346388714548	0.8186954	2	49	29874.98581	87.5	0.6382921000003989	1	0
245.81215928714664	0.8133394	2	49	29876.10669	75	0.9404813000001013	2	0
246.62549868714632	0.8166017000003194	1	0	0	0	0	0	0
247.44210038714664	0.8209377	2	49	29877.76586	75	0.9697133999979997	2	0
248.2630380871451	0.8169997000004514	2	49	29878.38895	100	0.7718606000016734	1	0
249.08003778714556	0.8099001000009594	2	49	29879.04595	81.25	0.6118631999997888	1	0
249.88993788714652	0.8166124	2	0	0	0	0	0	0
250.70655028714464	0.8154055000013614	2	0	0	0	0	0	0
251.5219558	0.8177495000018098	2	0	0	0	0	0	0
252.3397052871478	0.8107152999982645	2	49	29882.733	62.5	1.0392469999969762	2	0
253.15042058714607	0.8098576000011235	2	49	29883.38406	87.5	0.8795892000016465	2	0
253.9602781871472	0.8133471999972244	2	49	29884.24334	81.25	0.9290097999983118	2	0
254.77362538714442	0.8154729000016232	1	0	0	0	0	0	0
255.58909828714604	0.8103478000011819	2	49	29885.9341	68.75	0.9909560999985842	2	0
256.3994460871472	0.8094606999984535	2	49	29886.70122	75	0.9477216999985103	2	0
257.2089067871457	0.8197178000009444	2	0	0	0	0	0	0
258.0286245871466	0.8139836000009382	2	0	0	0	0	0	0
258.84260818714756	0.8149362999974983	2	49	29888.86446	87.5	0.6678050999980769	1	0
259.65754448714506	0.8053280000021914	2	49	29889.84724	87.5	0.8356452000007266	2	0
260.46287248714725	0.8181504	2	49	29890.58535	100	0.7684248000005027	1	0
261.2810228871458	0.8063044	1	49	29891.27732	87.5	0.6422461000001931	1	0
262.08732728714676	0.8144179000009899	2	0	0	0	0	0	0
262.90174518714775	0.8152360999993107	2	49	29892.78357	75	0.5277747999971325	1	0
263.71698128714706	0.8134098000009544	1	49	29893.59558	68.75	0.5245479999975942	1	0
264.5303911	0.8158753999996406	2	0	0	0	0	0	0
265.34626648714766	0.8152333999969414	2	49	29895.39339	93.75	0.6930735	1	0
266.1614998871446	0.8200550000001385	2	49	29896.52837	68.75	1.0128233000032196	2	0
266.98155488714474	0.8226697999998578	1	0	0	0	0	0	0
267.8042246871446	0.8118209000022034	2	49	29897.8906	100	0.7323262999998406	1	0
268.6160455871468	0.8145363000003272	2	49	29898.86648	81.25	0.8963842999983171	2	0
269.4305818871471	0.8129979000004823	2	0	0	0	0	0	0
270.2435797871476	0.8154409999988275	2	49	29900.14146	75	0.5438345	1	0
271.05902078714644	0.8196724999979779	1	0	0	0	0	0	0
271.8786932871444	0.8136791000033554	2	49	29901.89755	87.5	0.6648048000024573	1	0
272.69237238714777	0.8166891999971995	2	49	29902.70518	87.5	0.6587607999972533	1	0
273.50906158714497	0.8136444	2	0	0	0	0	0	0
274.32270598714604	0.8210824999987381	2	0	0	0	0	0	0
275.1437884871448	0.8116474000016751	2	49	29905.55673	62.5	1.058892700002616	2	0
275.95543588714645	0.8160075999985565	2	49	29906.36573	62.5	1.0562422000002698	2	0
276.7714435	0.8204089999999269	2	49	29907.07379	75	0.9482945000017935	2	0
277.59185248714493	0.8266250000015134	2	49	29907.89859	75	0.9526874000002863	2	0
278.41847748714645	0.8180084999985411	2	49	29908.73471	75	0.9621818000014173	2	0
279.236486	0.8204129000005196	2	49	29909.50353	81.25	0.9129907999995339	2	0
280.0568988871455	0.8066651000008278	2	49	29910.43217	68.75	1.0212205999996513	2	0
280.86356398714634	0.8221836000011535	2	49	29911.21097	75	0.9933519000005617	2	0
281.6857475871475	0.8123832	2	49	29912.03573	68.75	0.9959365	2	0
282.4981307871458	0.8111993000020448	2	49	29912.88027	68.75	1.0280859000013152	2	0
283.3093300871478	0.8133571999969718	2	49	29913.68933	68.75	1.0259470999990299	2	0
284.1226872871448	0.8128606000027503	2	49	29914.4233	75	0.9465665999996418	2	0
284.93554788714755	0.8168690999991668	2	0	0	0	0	0	0
285.7524169871467	0.8132777	2	49	29916.11622	68.75	1.0097585000003164	2	0
286.5656946871459	0.8192151000002923	1	0	0	0	0	0	0
287.38490978714617	0.8123817999985476	2	49	29917.25598	68.75	0.5170214999998279	1	0
288.1972915871447	0.8206546000001254	2	49	29918.23712	93.75	0.6857834000002185	1	0
289.01794618714484	0.8138677000024472	2	49	29919.17039	93.75	0.7983961000027193	2	0
289.8318138871473	0.8144871999975294	2	49	29920.22162	68.75	1.0357538999996905	2	0
290.6463010871448	0.8167849000019487	2	49	29921.03718	68.75	1.0368305000010878	2	0
291.46308598714677	0.8170289999980014	2	49	29921.76912	75	0.9519890999981726	2	0
292.28011498714477	0.8175983000000997	2	0	0	0	0	0	0
293.09771328714487	0.8180750999999873	2	49	29922.97655	68.75	0.5247850000014296	1	0
293.91578838714486	0.8111215999997512	2	49	29923.74153	62.5	0.47169530000246596	1	0
294.7269099871446	0.8173563000018476	1	0	0	0	0	0	0
295.54426628714646	0.8139144000015222	2	49	29925.32148	56.25	0.42316349999964586	1	0
296.3581807	0.8201055999998061	2	49	29926.25329	75	0.5410587999976997	1	0
297.1782862871478	0.8177796999989368	2	49	29927.33693	93.75	0.8045947999999044	2	0
297.9960659871467	0.8213723999979265	2	49	29928.38452	68.75	1.0344045999991067	2	0
298.81743838714465	0.8195778000008431	2	49	29929.34574	50	1.1742529000002833	2	0
299.6370161871455	0.8136975000015809	2	0	0	0	0	0	0
300.4507136871471	0.8134634999987611	2	49	29930.37437	75	0.5696024999997462	1	0
301.26417718714583	0.8147531	2	49	29931.59481	75	0.9765818000014406	2	0
302.07893028714534	0.8142029000009643	2	49	29932.2716	87.5	0.8386243999993894	2	0
302.8931331871463	0.8128268000000389	2	49	29933.18515	75	0.9379633999997168	2	0
303.70595998714634	0.8160075999985565	2	49	29933.92653	87.5	0.8665174999987357	2	0
304.5219675871449	0.8158390999997209	2	49	29934.68558	93.75	0.8095604000009189	2	0
305.3378066871446	0.8171451000016532	2	49	29935.72674	68.75	1.034883100001025	2	0
306.1549517871463	0.8175444000007701	1	0	0	0	0	0	0
306.97249618714704	0.8178752999992867	2	49	29936.6388	43.75	0.31225029999768594	1	0
307.79037148714633	0.8154519999989134	2	49	29938.18573	62.5	1.0413128000000142	2	0
308.60582348714524	0.8135980000006384	2	49	29939.20506	37.5	1.2451911000025575	2	0
309.4194214871459	0.8143960000015795	1	0	0	0	0	0	0
310.23381748714746	0.8165526999982831	2	49	29940.78254	50	1.1946726999995008	2	0
311.05037018714575	0.8197772999992594	2	49	29941.46179	62.5	1.0573680999987118	2	0
311.8701475	0.8131382999999914	1	49	29942.26495	62.5	1.0407536000020627	2	0
312.6832858	0.8164052000029187	2	0	0	0	0	0	0
313.4996909871479	0.8174270999988948	2	49	29943.77906	81.25	0.9253158999999869	2	0
314.3171180871468	0.8155661999990116	2	49	29944.66485	68.75	0.9936804999997548	2	0
315.1326842871458	0.8148331	2	0	0	0	0	0	0
315.94751738714695	0.8191077000010409	2	0	0	0	0	0	0
316.7666251	0.8238867999971262	2	0	0	0	0	0	0
317.5905118871451	0.8098699000001943	2	0	0	0	0	0	0
318.4003817871453	0.8171925000024203	2	49	29948.24818	68.75	0.49374510000052396	1	0
319.2175742871477	0.8152666999994835	2	49	29949.0079	62.5	0.4362809999984165	1	0
320.0328409871472	0.8182138999982271	2	49	29949.84422	62.5	0.45732479999787756	1	0
320.85105488714544	0.8132212000018626	1	49	29950.69204	68.75	0.48693330000241986	1	0
321.6642760871473	0.8162950999976601	2	0	0	0	0	0	0
322.48057118714496	0.8118963000015356	2	49	29952.32711	68.75	0.49249410000265925	1	0
323.2924674871465	0.8175268999984837	2	49	29953.35057	93.75	0.7040492000014638	1	0
324.1099944	0.8161525	2	49	29954.12921	87.5	0.6651700000002165	1	0
324.92614688714457	0.8169129000016255	1	49	29955.36246	62.5	1.0822669000008318	2	0
325.7430597871462	0.8180170999985421	2	0	0	0	0	0	0
326.56107688714474	0.8125748000020394	2	49	29956.6803	100	0.7651696000029915	1	0
327.3736516871468	0.8174828999981401	1	0	0	0	0	0	0
328.1911345871449	0.8219932000029075	2	49	29957.88921	50	0.3440237	1	0
329.0131277871478	0.8093184999997902	2	49	29959.29033	81.25	0.9231567999995605	2	0
329.8224462871476	0.8228843999968376	2	49	29960.53844	31.25	1.3619423999989522	2	0
330.64533068714445	0.8242833000003884	1	0	0	0	0	0	0
331.46961398714484	0.8184488	2	0	0	0	0	0	0
332.28806278714546	0.8191938999989361	2	49	29962.38838	100	0.7462653	1	0
333.1072566871444	0.8136908000014955	1	49	29963.2363	100	0.7749936000000162	1	0
333.9209474871459	0.8094922999989649	2	0	0	0	0	0	0
334.73043978714486	0.8092162	2	49	29964.68577	81.25	0.6012785000020813	1	0
335.53965598714785	0.8119692999971448	2	49	29965.45951	75	0.5658030999984476	1	0
336.3516253	0.8240296000003582	2	49	29966.94282	43.75	1.2371463000017684	2	0
337.17565488714536	0.8160100000022794	2	0	0	0	0	0	0
337.99166488714764	0.8166074000000663	2	49	29968.08261	93.75	0.7368949999981851	1	0
338.8082722871477	0.8106834999998682	2	49	29968.94382	93.75	0.7814939999989292	2	0
339.61895578714757	0.8191811	2	0	0	0	0	0	0
340.43813688714727	0.8118689999973867	2	0	0	0	0	0	0
341.25000588714465	0.8132923000011942	1	0	0	0	0	0	0
342.06329818714585	0.8190968000017165	2	49	29971.94212	68.75	0.5247687000010046	1	0
342.88239498714756	0.8187560999976995	2	49	29972.7323	68.75	0.49585499999739113	1	0
343.70115108714526	0.8136520000007295	2	49	29973.42394	50	0.3687410999991698	1	0
344.5148031	0.8213123999994423	1	49	29974.19688	43.75	0.3280266000001575	1	0
345.33611548714543	0.8251660999994783	2	49	29975.36679	87.5	0.6766280000010738	1	0
346.1612815871449	0.8182524000003468	2	49	29976.56474	62.5	1.0494068000007246	2	0
346.97953398714526	0.8185704999996233	2	49	29977.51295	50	1.1793661000010616	2	0
347.7981044871449	0.8105284000012034	2	0	0	0	0	0	0
348.6086328871461	0.8141576999987592	2	49	29978.95204	68.75	0.9893540000011853	2	0
349.42279058714485	0.8136671	2	0	0	0	0	0	0
350.2364576871478	0.8125353999967047	2	0	0	0	0	0	0
351.0489930871445	0.8120568000013009	1	49	29981.19292	93.75	0.7898742000033963	2	0
351.8610498871458	0.8130870999993931	2	49	29982.15609	75	0.9409935000003316	2	0
352.6741369871452	0.8186923	2	49	29982.91774	87.5	0.8895536000018183	2	0
353.49282928714456	0.8216534000021056	2	49	29984.07706	43.75	1.2301772000027995	2	0
354.31448268714666	0.8142686999999569	2	49	29984.63508	75	0.9665480000003299	2	0
355.1287513871466	0.8132833999989089	2	49	29985.47712	68.75	0.9943184000003384	2	0
355.94203478714553	0.8175780000019586	2	49	29986.38748	62.5	1.091400600002089	2	0
356.7596127871475	0.8203333999990718	2	49	29987.00109	87.5	0.8874228999993647	2	0
357.57994618714656	0.8107257000010577	2	49	29987.97201	62.5	1.038018799998099	2	0
358.3906718871476	0.8137377999992168	2	49	29988.92666	50	1.1819435999968846	2	0
359.20440968714684	0.8153001999999105	2	0	0	0	0	0	0
360.01970988714675	0.8152035999992222	2	0	0	0	0	0	0
360.83491348714597	0.8174983999997494	2	49	29990.78318	81.25	0.5942209999993793	1	0
361.6524118871457	0.8143229000015708	2	49	29991.49854	68.75	0.49207770000066375	1	0
362.4667347871473	0.8212882999978319	1	49	29992.80618	75	0.9853991999989375	2	0
363.2880230871451	0.8136683000011544	2	0	0	0	0	0	0
364.1016913871463	0.8138842000007571	1	49	29994.16835	93.75	0.7126117000007071	1	0
364.91557558714703	0.8188368999981321	2	49	29995.18644	81.25	0.9168131999977049	2	0
365.73441248714516	0.8155833000018902	2	49	29995.90432	93.75	0.8158540000003995	2	0
366.54999578714705	0.8199267999989388	2	49	29996.95124	62.5	1.047192999998515	2	0
367.3699226	0.8108285999987856	2	0	0	0	0	0	0
368.1807511871448	0.8209296000022732	2	49	29998.25484	93.75	0.7200443000001542	1	0
369.00168078714705	0.8161796	2	49	29999.10572	100	0.7499940999987302	1	0
369.81786038714563	0.8138378000003286	1	0	0	0	0	0	0
370.63169818714596	0.8160275000009278	2	49	30000.28538	43.75	0.29963320000024396	1	0
371.4477256871469	0.8162222999999358	2	49	30001.96367	50	1.1618941999986419	2	0
372.2639479871468	0.8186733000002278	2	49	30002.77246	50	1.1544649999996182	2	0
373.08262128714705	0.8105409999989206	2	49	30003.64055	43.75	1.2038835999992443	2	0
373.89316228714597	0.8222626999995555	2	49	30004.37112	56.25	1.1239083000000392	2	0
374.7154249871455	0.8153807000016968	2	49	30005.14783	62.5	1.078358599999774	2	0
375.5308056871472	0.8176936999989266	2	49	30006.14161	37.5	1.256755999998859	2	0
376.34849938714615	0.8195777000000817	1	0	0	0	0	0	0
377.16807708714623	0.8158616	2	49	30007.44466	81.25	0.9225346999992325	2	0
377.9839386871463	0.8161163000004308	1	49	30008.21625	87.5	0.8782624000014039	2	0
378.8000549871467	0.8145083999988856	2	49	30009.14683	68.75	0.9927208999979484	2	0
379.6145633871456	0.8088319999988016	2	49	30010.05308	62.5	1.084467799999402	2	0
380.4233953871444	0.8160644000017783	2	49	30010.92685	50	1.1494037000011303	2	0
381.2394597871462	0.8168857999989996	1	0	0	0	0	0	0
382.0563455871452	0.8173483999999007	2	49	30012.22235	93.75	0.8119575000018813	2	0
382.8736939871451	0.8169877	2	49	30012.90389	87.5	0.6761432000021159	1	0
383.6906816871451	0.8152776	2	49	30013.80503	100	0.7602972999993654	1	0
384.50595928714756	0.8155544999972335	2	49	30014.78287	81.25	0.9228569999977481	2	0
385.3215137871448	0.8160584	2	0	0	0	0	0	0
386.13757218714454	0.8171650000003865	2	49	30016.4172	81.25	0.9255762	2	0
386.95473718714493	0.8148067000001902	1	49	30017.11964	93.75	0.8108530000026803	2	0
387.7695438871451	0.8172626000014134	2	0	0	0	0	0	0
388.58680648714653	0.8159234999984619	2	0	0	0	0	0	0
389.40273	0.8152587000004132	2	49	30019.33916	81.25	0.5823783000014373	1	0
390.2179886871454	0.8290732999994361	2	49	30020.06795	68.75	0.4959071000012045	1	0
391.04706198714484	0.8273702000005869	2	49	30020.81239	56.25	0.4112745000020368	1	0
391.87443218714543	0.8156483000020671	2	49	30021.75098	68.75	0.5224980999992113	1	0
392.6900804871475	0.8112068999980693	2	49	30022.91248	87.5	0.8683516999990388	2	0
393.50128738714557	0.819035	1	0	0	0	0	0	0
394.3203224	0.8150894	2	49	30024.14555	62.5	0.47117399999842746	1	0
395.13541178714513	0.8245061000015994	2	49	30025.25032	100	0.7608583	1	0
395.95991788714673	0.8349874999985332	2	0	0	0	0	0	0
396.79490538714526	0.8358159000017622	2	0	0	0	0	0	0
397.6307213	0.8267440999989049	2	0	0	0	0	0	0
398.45746538714593	0.8088337000008323	2	0	0	0	0	0	0
399.26629908714676	0.8115944999990461	2	0	0	0	0	0	0
400.0778935871458	0.8189100999989023	2	49	30029.94174	68.75	0.5097927999995591	1	0
400.8968036871447	0.8087184000032721	2	49	30031.01156	100	0.7607051000013598	1	0
401.7055221	0.8100720999973419	1	0	0	0	0	0	0
402.5155941871453	0.8101012000006449	1	0	0	0	0	0	0
403.32569538714597	0.8183367000019643	1	0	0	0	0	0	0
404.14403208714793	0.8171653999997943	2	49	30034.26546	100	0.7673798999967403	1	0
404.96119748714773	0.8166199999977835	2	49	30034.9226	81.25	0.6073570999978983	1	0
405.7778174871455	0.8134432	2	49	30036.08554	75	0.9536690000022645	2	0
406.59126068714613	0.8211398999992525	1	0	0	0	0	0	0
407.4124005871454	0.8118675000005169	2	49	30037.76461	68.75	0.9981637999990198	2	0
408.2242680871459	0.8187638999988849	2	49	30038.27053	93.75	0.6922092999993765	1	0
409.0430319871448	0.8143321000025026	2	49	30039.36561	75	0.9685293000002275	2	0
409.8573640871473	0.8133601999979874	2	49	30039.99157	100	0.7801565	1	0
410.6707242871453	0.8177389000011317	2	49	30040.77289	100	0.7481203999996069	1	0
411.4884631871464	0.8172847999994701	2	49	30041.7547	81.25	0.9121846999987611	2	0
412.3057479871459	0.8202334999987215	1	49	30042.6497	75	0.9899045999991358	2	0
413.1259814871446	0.8144004000023415	2	49	30043.6378	50	1.1577690000012808	2	0
413.94038188714694	0.8207767999992939	2	0	0	0	0	0	0
414.76115868714624	0.8155202000016288	2	0	0	0	0	0	0
415.57667888714786	0.8192090999982611	2	49	30045.60586	87.5	0.6751348999969196	1	0
416.3958879871461	0.8089796999993268	2	49	30046.55376	93.75	0.8038194000000658	2	0
417.20486768714545	0.8146120999990671	2	49	30047.40093	87.5	0.8420167000003858	2	0
418.0194797871445	0.8150913000026776	2	49	30048.16392	93.75	0.7903882000027806	2	0
418.8345710871472	0.8199143999991065	2	49	30049.33717	50	1.148554299998068	2	0
419.6544854871463	0.8180657000011706	2	49	30050.06138	62.5	1.0528481000001193	2	0
420.4725511871475	0.8098699999973178	2	0	0	0	0	0	0
421.2824211871448	0.8174637000010989	2	0	0	0	0	0	0
422.0998848871459	0.8142932	2	0	0	0	0	0	0
422.91417808714687	0.8167720999990706	2	49	30053.12107	87.5	0.8528378	2	0
423.73095018714594	0.8165933000018413	1	49	30053.87408	93.75	0.7890772999999172	2	0
424.5475434871478	0.8155618999990111	2	0	0	0	0	0	0
425.3631053871468	0.8158961000008276	2	49	30055.36209	87.5	0.6449329999995825	1	0
426.1790014871476	0.8244988999977068	1	49	30056.00597	62.5	0.4729206999982125	1	0
427.0035003871453	0.8158523999991303	2	0	0	0	0	0	0
427.81935278714445	0.8217402000009315	2	49	30057.62519	62.5	0.45179230000212556	1	0
428.6410929871454	0.8132509999995818	2	49	30058.43529	62.5	0.44014529999913066	1	0
429.45434398714497	0.8131246000011743	2	49	30059.36267	75	0.5542813000029128	1	0
430.26746858714614	0.8116651999989699	2	49	30060.41144	93.75	0.7899232999989181	2	0
431.0791337871451	0.8154371000018727	2	49	30061.22431	93.75	0.7911310000017693	2	0
431.8945709	0.8159497999986343	2	49	30062.32571	62.5	1.0770857999996224	2	0
432.7105206871456	0.8162563000005321	2	49	30063.25966	43.75	1.1950938000009046	2	0
433.52677698714615	0.817854	2	49	30064.12331	43.75	1.2424847000002046	2	0
434.34463098714696	0.8205105999986699	2	0	0	0	0	0	0
435.1651415871456	0.8179924	2	49	30065.44858	81.25	0.9293899000003876	2	0
435.98313398714527	0.8143380000001343	2	0	0	0	0	0	0
436.7974719871454	0.8149474000019836	1	0	0	0	0	0	0
437.6124193871474	0.8155302999984997	2	49	30067.34681	56.25	0.3803434000001289	1	0
438.4279496871459	0.8200180999992881	1	49	30068.34418	75	0.5621840999992855	1	0
439.24796778714517	0.8090166000001773	2	49	30069.27666	87.5	0.6746410000014293	1	0
440.05698438714535	0.8158284000019194	2	49	30070.2566	87.5	0.8455637000006391	2	0
440.87281278714727	0.8144717	2	49	30070.95265	93.75	0.7257848	1	0
441.6872844871468	0.8168421000009403	1	49	30071.64253	81.25	0.6011925	1	0
442.50412658714777	0.8144060999984504	2	49	30072.81063	75	0.9524578999989899	2	0
443.3185326871462	0.8150113999981841	2	49	30073.76394	56.25	1.0913537000014912	2	0
444.1335440871444	0.8178721000003861	2	0	0	0	0	0	0
444.9514161871448	0.8141978000021481	2	49	30074.83247	68.75	0.5270063999996637	1	0
445.76561398714693	0.8266569000006712	2	49	30076.12313	68.75	1.003463199998805	2	0
446.5922708871476	0.8133760999990045	1	49	30077.03218	62.5	1.0858619999999064	2	0
447.4056469871466	0.8195226999996521	2	49	30077.97053	43.75	1.2108383999984653	2	0
448.22516968714626	0.8259341999983008	2	0	0	0	0	0	0
449.05110388714456	0.8165218000031018	2	49	30079.11148	93.75	0.7063248000013118	1	0
449.86762568714767	0.8133160999968823	2	49	30080.42297	43.75	1.2012968999988516	2	0
450.68094178714455	0.8133944000001065	2	0	0	0	0	0	0
451.49433618714465	0.8160913000028813	1	49	30081.54912	93.75	0.7007363000011537	1	0
452.31042748714754	0.8113321999990148	2	0	0	0	0	0	0
453.12175968714655	0.8175413999997545	2	0	0	0	0	0	0
453.9393010871463	0.8169584999996005	2	0	0	0	0	0	0
454.7562595871459	0.8062830999988364	2	49	30085.23829	56.25	1.1279764999999315	2	0
455.56254268714474	0.8126915	1	0	0	0	0	0	0
456.3752341871477	0.8158522999983688	2	49	30086.0536	43.75	0.32431670000005397	1	0
457.1910864871461	0.8173825000012584	2	49	30087.22103	87.5	0.6758971000017482	1	0
458.00846898714735	0.8193146999983583	2	49	30088.00224	87.5	0.6397219	1	0
458.8277836871457	0.8138509	2	49	30088.98471	93.75	0.8028799999992771	2	0
459.64163458714756	0.8205383999993501	2	49	30089.79135	93.75	0.7956653999972332	2	0
460.4621729871469	0.8112053999975615	2	49	30090.66539	87.5	0.8491644999994605	2	0
461.2733783871445	0.8174658000025374	2	49	30091.60948	75	0.9820516	2	0
462.0908442	0.8151542999985395	1	0	0	0	0	0	0
462.90599848714555	0.8163107000000309	2	49	30092.8847	81.25	0.6246513000005507	1	0
463.7223091871456	0.8171756000010646	2	49	30093.91548	87.5	0.8391212999995332	2	0
464.53948478714665	0.8158728999987943	2	49	30094.79386	81.25	0.9003245999992942	2	0
465.35535768714544	0.8174906	2	49	30095.70743	68.75	0.9980276999995112	2	0
466.17284828714764	0.8217815999996674	1	49	30096.76858	43.75	1.2416830999973172	2	0
466.9946298871473	0.8126428	1	0	0	0	0	0	0
467.8072726871469	0.8241744000006292	2	49	30097.58157	56.25	0.4202490999996371	1	0
468.63144708714754	0.8114610999982688	2	49	30098.72452	100	0.7390276999976777	1	0
469.4429081871458	0.8085772000013094	2	49	30099.66877	87.5	0.8718171000000439	2	0
470.2514853871471	0.8192471000002115	2	0	0	0	0	0	0
471.0707324871473	0.8160182999999961	2	49	30100.92658	68.75	0.5018015999994532	1	0
471.8867507871473	0.8129243000003044	2	49	30102.11674	87.5	0.8759347999985039	2	0
472.6996750871476	0.8151410999998916	2	49	30103.0887	68.75	1.0349704999971436	2	0
473.5148161871475	0.8164976	2	49	30104.00989	56.25	1.1410250999979326	2	0
474.3313137871446	0.8165850000004866	2	49	30104.75382	62.5	1.0684605000024021	2	0
475.1478987871451	0.8180320000028587	2	0	0	0	0	0	0
475.96593078714795	0.8141652999984217	2	0	0	0	0	0	0
476.7800960871464	0.8270248000007996	1	0	0	0	0	0	0
477.6071208871472	0.8079732000005606	2	0	0	0	0	0	0
478.41509408714774	0.8211792000001878	2	49	30108.76482	75	0.9956781000000774	2	0
479.2362732871479	0.8174204999995709	1	49	30109.638	62.5	1.0476735999982338	2	0
480.0536937871475	0.8163002999972377	2	0	0	0	0	0	0
480.86999408714473	0.8174558000027901	2	49	30110.86087	87.5	0.6368231	1	0
481.6874498871475	0.8131811999992351	2	49	30111.66252	81.25	0.6210214999991877	1	0
482.50063108714676	0.8213196	2	49	30112.55289	93.75	0.6982112000005145	1	0
483.32195068714645	0.8229793999998947	2	49	30113.54292	87.5	0.8669233000000531	2	0
484.14493008714635	0.8249204999992799	2	49	30114.32495	93.75	0.8259752999983903	2	0
484.96985058714563	0.8183465000001888	2	49	30115.18868	87.5	0.8647801000006439	2	0
485.7881970871458	0.8156811	2	49	30116.36114	43.75	1.2188978000012867	2	0
486.6038781871466	0.8193874999997206	2	49	30117.15307	50	1.1951396000004024	2	0
487.42326568714634	0.8162898000009591	2	49	30118.01232	43.75	1.2350019000004977	2	0
488.2395554871473	0.8162083999995957	2	0	0	0	0	0	0
489.0557638871469	0.8122187000008125	2	49	30118.94004	75	0.5302277999981015	1	0
489.8679825871477	0.8132796999998391	2	49	30119.93825	93.75	0.7162180999985139	1	0
490.68126228714755	0.8089172999971197	2	49	30121.00013	75	0.9648142999976699	2	0
491.49017958714467	0.8196574000030523	2	0	0	0	0	0	0
492.3098369871477	0.8135305999967386	2	0	0	0	0	0	0
493.12336758714446	0.8141928000004555	2	0	0	0	0	0	0
493.9375603871449	0.8123439000009967	1	0	0	0	0	0	0
494.7499042871459	0.8123550999989675	2	0	0	0	0	0	0
495.5622593871449	0.8155456000022241	1	0	0	0	0	0	0
496.3778049871471	0.8178098999997019	2	49	30126.08339	50	0.35154010000042035	1	0
497.1956148871468	0.8125882999993337	2	49	30127.34739	93.75	0.7977272999996785	2	0
498.00820318714614	0.8166706	2	49	30128.279	81.25	0.9167482	2	0
498.8248737871472	0.8120175000003655	2	0	0	0	0	0	0
499.6368912871476	0.8151117999987036	2	49	30129.96363	75	0.9726910999997926	2	0
500.4520030871463	0.8131912999997439	2	49	30130.99095	50	1.184898700001213	2	0
501.26519438714604	0.8160093000005872	2	0	0	0	0	0	0
502.0812036871466	0.8159900999999081	2	49	30132.2077	100	0.7724453000009817	1	0
502.89719378714653	0.8228512999994564	2	49	30133.31244	62.5	1.061198700001114	2	0
503.7200451	0.8172360999997181	2	49	30134.17851	56.25	1.1044126999986474	2	0
504.5372811871457	0.8132174000020314	2	0	0	0	0	0	0
505.35049858714774	0.8136272999981884	2	49	30135.2904	81.25	0.5858502999981283	1	0
506.16412588714593	0.8236799000005703	2	49	30136.15352	81.25	0.6353496000010637	1	0
506.9878057871465	0.8148756999980833	2	49	30136.95269	81.25	0.6108337000005122	1	0
507.8026814871446	0.8153663000011875	1	49	30137.7806	81.25	0.6238693000013882	1	0
508.61804778714577	0.8101284000003943	2	49	30139.14303	50	1.170934	2	0
509.42817618714616	n/a	0	0	0	0	0	0	0