onset	duration	offset	trial	item	RT	response
55.52539999999999	3.5307030000257953	59.056103000025786	1	att	1.36766270000953	7.0
59.056958100017695	5.145015200017895	64.20197330003559	1	past	1.59440159995575	1.0
64.20274469997229	2.332264799973899	66.53500949994618	1	fut	0.815154000069015	1.0
66.53578140000309	4.140844200039297	70.67662560004239	1	self	1.0665637999773	7.0
70.67745200004849	1.695421899901703	72.37287389995019	1	ppl	0.344906899961643	2.0
72.37403230003969	4.637149399961402	77.01118170000109	1	arou	1.20789299998432	4.0
77.01228250000119	2.057267199968905	79.0695496999701	1	aff	1.61517580004875	5.0
79.07026080002969	6.2468364000089025	85.31709720003859	1	eng	3.3296219999902	3.0
85.31827010000559	7.082792600035006	92.4010627000406	1	mvmt	1.3231866999995	9.0
92.40180099995759	2.8485574000520018	95.25035840000959	1	delib	1.02378789999057	9.0
95.25115750004059	2.8421856999629966	98.09334320000359	1	image	1.60633799992502	8.0
98.0942298000026	1.9874536000420022	100.0816834000446	1	ling	0.891640900052153	3.0
100.08249500005459	2.5214662998919977	102.60396129994659	1	conf	1.45368219993543	9.0
155.4556985999966	5.457176900002992	160.9128754999996	2	att	2.23272400000133	7.0
160.91412699998358	3.041257300064018	163.9553843000476	2	past	1.0755058999639	1.0
163.9563940000526	6.32075689989199	170.2771508999446	2	fut	0.69030399993062	6.0
170.2779664999846	4.346249600058002	174.6242161000426	2	self	2.0220642000204	8.0
174.6251643000446	6.482805999926995	181.10797029997158	2	ppl	0.411645599990152	8.0
181.10865240004358	2.899362299940009	184.0080146999836	2	arou	1.01248989999294	7.0
184.0087742999476	2.987344800028012	186.9961190999756	2	aff	0.96711030008737	7.0
186.99695040001959	4.082109399955016	191.0790597999746	2	eng	1.74509859993123	4.0
191.0798309000256	1.934385899919988	193.0142167999456	2	mvmt	0.795001399936154	9.0
193.01512630000158	2.705666200025007	195.7207925000266	2	delib	1.32718070002738	1.0
195.7217782999666	2.4534279999789987	198.1752062999456	2	image	1.22597450006288	8.0
198.1758346999576	8.06156050006399	206.23739520002158	2	ling	1.06250250001904	4.0
206.23845639995258	2.862593300057995	209.10104970001058	2	conf	0.967706000083126	9.0
269.96281000001363	11.055126799969003	281.01793679998264	3	att	1.8697595000267	7.0
281.0187336999966	3.4647359000520055	284.4834696000486	3	past	2.06328919995576	1.0
284.4844508999536	1.4118590001019697	285.89630990005554	3	fut	0.304144200053997	1.0
285.8972842000236	3.2894428999860565	289.18672710000965	3	self	1.08652549993712	8.0
289.1875185999826	2.1833980999659843	291.37091669994857	3	ppl	0.784394399961457	1.0
291.37210220001157	3.680413599941005	295.0525157999526	3	arou	1.07623999996576	4.0
295.0533219000366	3.1225047999760136	298.17582670001264	3	aff	1.04365309991408	5.0
298.1769373999716	2.8368807000809966	301.0138181000526	3	eng	1.66054830001667	4.0
301.0144797999686	2.5366037000200095	303.55108349998864	3	mvmt	1.0802983000176	7.0
303.5518900999606	12.003021200070975	315.55491130003156	3	delib	1.48324810003396	2.0
315.5552373999536	4.1484692000090035	319.70370659996263	3	image	1.93672100000549	8.0
319.7045962999846	2.0712076000639854	321.7758039000486	3	ling	0.702831399976276	2.0
321.77653240000757	3.275664999964988	325.05219739997256	3	conf	0.821423799963668	9.0
383.96658219998164	5.707956900005968	389.6745390999876	4	att	1.65228180005215	6.0
389.67455630000154	2.809231000021043	392.4837873000226	4	past	1.2341886999784	1.0
392.4838102999656	3.408153900060995	395.8919642000266	4	fut	0.977612000075169	8.0
395.89199140000164	2.9267897999379784	398.8187811999396	4	self	1.17160390003119	9.0
398.8187978999496	3.4199210000230096	402.2387188999726	4	ppl	0.399582600104623	9.0
402.2387400000166	3.6145119999999906	405.8532520000166	4	arou	0.927602599957027	6.0
405.85327319994565	2.1694469000210006	408.02272009996665	4	aff	1.24329140002374	5.0
408.02273699997863	9.18980689998699	417.2125438999656	4	eng	3.08840130001772	7.0
417.2125610999806	2.384238000028006	419.5967991000086	4	mvmt	0.981342000071891	7.0
419.5968157000186	2.9126667999660185	422.50948249998464	4	delib	0.843317799968645	3.0
422.51034510003365	3.1612754999659956	425.67162059999964	4	image	1.07305050001014	8.0
425.6716382000176	4.489334399927998	430.1609725999456	4	ling	0.832499800017104	2.0
430.1609951000006	7.640764500014029	437.80175960001463	4	conf	3.11909050005488	7.0
488.67017400004363	5.437929500010966	494.1081035000546	5	att	1.48640649998561	8.0
494.1081259999936	3.760185600025011	497.8683116000186	5	past	1.47327650000807	2.0
497.86833479996267	2.733540700049957	500.6018755000126	5	fut	1.20691900001839	8.0
500.60189530004664	2.5816965999549666	503.1835919000016	5	self	1.42814899992663	7.0
503.1836139000526	3.7500692999460625	506.93368319999865	5	ppl	0.675213499926031	8.0
506.9336994000056	2.649212199961994	509.5829115999676	5	arou	1.59572300000582	6.0
509.5829348000276	2.3109889000189696	511.89392370004657	5	aff	1.7565322999144	6.0
511.89394049994166	4.486641700029963	516.3805821999716	5	eng	1.18103960005101	6.0
516.3806041000216	2.1825380999370054	518.5631421999586	5	mvmt	0.90259509999305	7.0
518.5631883999606	6.529655500082981	525.0928439000436	5	delib	1.79836510005407	2.0
525.0928640999637	4.904758900054958	529.9976230000186	5	image	1.14024169999175	8.0
529.9976415000436	6.61003079998693	536.6076723000306	5	ling	0.917067599948496	7.0
536.6076955999756	3.4648087000240366	540.0725042999997	5	conf	1.25773630000185	8.0
588.9734738999556	7.994216600083973	596.9676905000396	6	att	2.57384700002149	7.0
596.9677078000547	2.796630799886998	599.7643385999417	6	past	1.44885039993096	1.0
599.7643561999586	5.370587700047054	605.1349439000056	6	fut	0.672004800057039	7.0
605.1350003999696	6.714509500074996	611.8495099000446	6	self	1.1120941999834	8.0
611.8495285999536	2.0823362000520547	613.9318648000057	6	ppl	0.534645200008526	1.0
613.9318874999457	2.27803859999392	616.2099260999396	6	arou	1.61103440006264	4.0
616.2099448999667	2.733785500050999	618.9437304000177	6	aff	1.25690290005878	4.0
618.9437476000326	5.840115799918067	624.7838633999506	6	eng	1.02862300002016	2.0
624.7838858000047	2.637656099977903	627.4215418999826	6	mvmt	0.967945300042629	8.0
627.4215677999466	2.3025231000500526	629.7240908999967	6	delib	1.16154850006569	1.0
629.7241244000196	6.296977399964021	636.0211017999836	6	image	1.21786139998585	1.0
636.0211246000416	2.1166753999419825	638.1377999999836	6	ling	0.890262999921106	9.0
638.1378202000207	3.601232799935019	641.7390529999557	6	conf	1.18591959995683	9.0
