onset	duration	offset	trial	item	RT	response
48.52440000000001	6.323889799881698	54.848289799881705	1	att	4.05889799958095	3.0
54.8493827995896	7.341402500402211	62.19078529999181	1	past	2.90567550016567	1.0
62.1917961998895	3.3842323999852084	65.57602859987472	1	fut	1.46595659991726	2.0
65.5769140999816	3.7878054999747093	69.3647195999563	1	self	2.16995509993285	8.0
69.36585099995659	3.036171699874103	72.4020226998307	1	ppl	0.981190199963748	1.0
72.4028919995815	7.307651299982993	79.71054329956449	1	arou	5.21310689998791	7.0
79.71157659963251	3.0662349001510023	82.77781149978351	1	aff	1.73828570032492	3.0
82.7786951996435	10.222332899925007	93.0010280995685	1	eng	7.39141240017489	6.0
93.00247389963451	3.247006100136005	96.24947999977051	1	mvmt	1.55840050010011	8.0
96.2504894998905	3.111409899779005	99.36189939966951	1	delib	1.76591389998794	2.0
99.3628407996205	3.9344742000100013	103.2973149996305	1	image	1.27907560020685	2.0
103.29838419985549	2.6205349997620004	105.91891919961749	1	ling	1.05474000005051	8.0
105.9199051996745	2.9609846998939986	108.8808898995685	1	conf	1.34067950025201	9.0
158.7656568000145	6.638593499548989	165.4042502995635	2	att	3.79130789963529	6.0
165.40504339989752	7.563576499931997	172.96861989982952	2	past	5.13179720006883	4.0
172.9697478995715	3.8935761000030027	176.8633239995745	2	fut	2.26450620032847	2.0
176.8641633996795	2.9081284999840022	179.77229189966351	2	self	1.74077020026743	7.0
179.7733090999585	4.501013699919014	184.27432279987752	2	ppl	1.81035429984331	4.0
184.27507360000652	4.815133499913003	189.09020709991952	2	arou	2.92628309968859	4.0
189.09157719975852	7.213631500024007	196.30520869978253	2	aff	2.53004320012406	4.0
196.3060234999335	4.332485700026012	200.63850919995951	2	eng	3.08620100002736	3.0
200.6393687999855	2.6838237997150145	203.32319259970052	2	mvmt	1.47854149993509	8.0
203.3240022999285	7.332730599678996	210.6567328996075	2	delib	4.95961500005797	2.0
210.65787079977352	4.07598950015398	214.7338602999275	2	image	1.43215830018744	3.0
214.73520309990752	2.433795799966987	217.1689988998745	2	ling	1.08208360010758	8.0
217.16999919992452	4.05645489972099	221.2264540996455	2	conf	2.65362139977515	8.0
279.07143279957154	6.124093700200945	285.1955264997725	3	att	4.03527680039406	8.0
285.1966078998575	3.3375593000089907	288.5341671998665	3	past	2.17678460013121	7.0
288.5348437996635	2.392707800026983	290.9275515996905	3	fut	0.84656640002504	8.0
290.92816819996153	3.7138080997389693	294.6419762997005	3	self	1.90957049978897	8.0
294.6428561997655	7.015315900091025	301.65817209985653	3	ppl	0.820973999798298	5.0
301.6588177997675	3.9790345001960077	305.6378522999635	3	arou	2.24867259990424	6.0
305.6389792999305	3.3056039996450295	308.9445832995755	3	aff	2.20923219993711	3.0
308.9456712999435	4.815442800056019	313.76111409999953	3	eng	1.28678569989279	7.0
313.7620248999495	5.2509412998340395	319.01296619978353	3	mvmt	1.10760639980435	7.0
319.0137760997805	5.11621240014199	324.1299884999225	3	delib	3.66085240012035	2.0
324.1307649998975	3.5175638999789953	327.6483288998765	3	image	1.39399249991402	2.0
327.6491825999745	2.996847399975991	330.6460299999505	3	ling	0.742525099776685	8.0
330.64706559991953	3.8320790999569567	334.4791446998765	3	conf	1.88370919972658	9.0
392.37519449974053	6.276086400262955	398.6512809000035	4	att	3.38445590017363	8.0
398.6512982999025	4.415779700036978	403.0670779999395	4	past	2.19499059999362	2.0
403.0671027996625	3.228825200350002	406.2959280000125	4	fut	1.55983010027558	8.0
406.2959469999235	3.821694399696014	410.1176413996195	4	self	1.69131919974461	7.0
410.1176610998865	2.3363910997280186	412.4540521996145	4	ppl	0.934096099808812	7.0
412.4540708996405	6.579884600360003	419.0339555000005	4	arou	5.20138119999319	8.0
419.0339740999095	2.4138491000049953	421.4478231999145	4	aff	1.11176449991763	8.0
421.4478413998205	3.0179147999730276	424.46575619979353	4	eng	1.9660163000226	7.0
424.4657729999215	8.315093299839987	432.7808662997615	4	mvmt	1.92942239996046	5.0
432.7808858999105	3.950864299666023	436.73175019957654	4	delib	2.43086900003254	3.0
436.7317649996895	3.185297599993021	439.91706259968254	4	image	1.84960249997675	4.0
439.9170808997055	2.5809603002859944	442.4980411999915	4	ling	1.51440740004182	8.0
442.49806029955454	2.854008300229964	445.3520685997845	4	conf	1.25036730011925	9.0
498.28050519992155	5.055977500043923	503.3364826999655	5	att	3.1552253998816	7.0
503.3365030000035	4.972775699571002	508.3092786995745	5	past	3.20018499996513	1.0
508.30930159986553	3.3466477999460267	511.65594939981156	5	fut	1.78392629977316	9.0
511.65599119989747	3.0723129999820458	514.7283041998795	5	self	1.81738459970802	6.0
514.7283220998995	2.651040399912972	517.3793624998125	5	ppl	0.680511699989438	9.0
517.3793777995795	6.377212900202949	523.7565906997825	5	arou	4.2704990003258	8.0
523.7567048999535	4.515457700005982	528.2721625999595	5	aff	1.86791619984433	8.0
528.2721776999585	5.182016099802922	533.4541937997615	5	eng	3.48676029965281	7.0
533.4542130995595	3.655584600287966	537.1097976998475	5	mvmt	2.02036060020328	2.0
537.1098127998465	2.8023123000749592	539.9121250999215	5	delib	1.64973009983078	2.0
539.9121454996105	2.9277452002280597	542.8398906998385	5	image	2.04859489994124	4.0
542.8399098999855	2.99941099993805	545.8393208999236	5	ling	1.06917859986424	8.0
545.8393406998415	5.433747499715992	551.2730881995575	5	conf	3.9038811000064	8.0
609.1878490997535	8.040752000174962	617.2286010999285	6	att	3.85694399988279	6.0
617.2286343998325	6.177034900058061	623.4056692998905	6	past	1.35994940018281	3.0
623.4056888995746	3.171511600259919	626.5772004998345	6	fut	1.05221020011231	8.0
626.5772177996165	4.185343400110014	630.7625611997265	6	self	1.50632030004635	7.0
630.7625758997215	3.193310299888026	633.9558861996095	6	ppl	1.91606900002807	3.0
633.9559059999935	4.144782399758924	638.1006883997525	6	arou	1.74087359989062	7.0
638.1007084995565	5.3121534003870465	643.4128618999436	6	aff	3.6501618004404	3.0
643.4128771997105	4.833487700206092	648.2463648999166	6	eng	3.23824999993667	3.0
648.2463789996746	3.713157000019919	651.9595359996945	6	mvmt	1.68720749998465	7.0
651.9595562997325	2.9958267002369894	654.9553829999695	6	delib	1.76594730000943	4.0
654.9553971998445	3.6438992000190638	658.5992963998635	6	image	2.21680499985814	2.0
658.5993168996695	3.883553400170058	662.4828702998395	6	ling	0.505052800290287	8.0
662.4828904997605	2.7670987998139935	665.2499892995745	6	conf	1.51203359989449	8.0
