onset	duration	cue	constant1	timestamp	stimulus_coherence	response_time	response	constant2
20.483581636101007	0.8324833996593952	2	49	4732214.894	93.75	0.8385717999190092	2	0
21.316065035760403	0.8325949003919959	2	49	4732215.701	93.75	0.8127260003238916	2	0
22.14865994	0.8288941998034716	2	49	4732216.378	87.5	0.6572186	1	0
22.97755413595587	0.8338754996657372	2	49	4732217.313	100	0.7632251000031829	1	0
23.811429635621607	0.8195887999609113	2	49	4732218.178	93.75	0.7943824	2	0
24.63101843558252	0.8279651999473572	2	49	4732218.982	100	0.7788184005767107	1	0
25.458983635529876	0.8241371000185609	2	49	4732219.838	93.75	0.8071861006319523	2	0
26.283120735548437	0.8237193003296852	2	49	4732220.601	100	0.7458514999598265	1	0
27.106840035878122	0.8726511998102069	2	49	4732221.391	87.5	0.7122411001473665	1	0
27.97949123568833	0.8234208999201655	1	49	4732222.264	93.75	0.7131369998678565	1	0
28.802912135608494	0.8170059006661177	1	0	0	0	0	0	0
29.619918036274612	0.8203080995008349	2	49	4732223.962	100	0.7702747	1	0
30.440226135775447	0.8180732000619173	2	49	4732224.851	87.5	0.8389678001403809	2	0
31.258299335837364	0.8178895004093647	2	49	4732225.651	93.75	0.8207010002806783	2	0
32.07618883624673	0.8226324999704957	2	49	4732226.488	93.75	0.8398148994892836	2	0
32.898821336217225	0.8122653998434544	2	49	4732227.386	81.25	0.9152114000171423	2	0
33.71108673606068	0.820419	2	49	4732228.27	75	0.9871682999655604	2	0
34.531505735591054	0.8181760003790259	2	49	4732229.049	75	0.9456118000671268	2	0
35.34968173597008	0.8181402003392577	1	0	0	0	0	0	0
36.16782193630934	0.8192734997719526	2	49	4732230.361	81.25	0.6215556999668479	1	0
36.98709543608129	0.8188482001423836	2	49	4732231.35	100	0.7911487994715571	1	0
37.805943636223674	0.8205706998705864	1	0	0	0	0	0	0
38.62651433609426	0.8167960997670889	2	49	4732232.91	93.75	0.7117852000519633	1	0
39.44331043586135	0.8112959004938602	1	0	0	0	0	0	0
40.25460633635521	0.8121493998914957	2	49	4732234.545	93.75	0.7188516	1	0
41.066755736246705	0.8122692992910743	2	49	4732235.484	87.5	0.8450325997546315	2	0
41.87902503553778	0.8261497002094984	2	49	4732236.29	93.75	0.8392940005287528	2	0
42.70517473574728	0.8245676001533866	2	49	4732237.064	100	0.7871339004486799	1	0
43.529742335900664	0.8280571000650525	2	49	4732237.852	100	0.7507244003936648	1	0
44.35779943596572	0.8188977995887399	1	0	0	0	0	0	0
45.17669723555446	0.8137292005121708	2	49	4732239.438	93.75	0.6896541006863117	1	0
45.99042643606663	0.8166437996551394	2	49	4732240.426	87.5	0.8638810003176332	2	0
46.80707023572177	0.8180191004648805	2	49	4732241.138	100	0.7595881000161171	1	0
47.62508933618665	0.8206105995923281	2	49	4732241.848	87.5	0.6509134	1	0
48.445699935778975	0.8172540003433824	1	0	0	0	0	0	0
49.26295393612236	0.8183041	2	49	4732243.658	93.75	0.8236366994678974	2	0
50.08125803619623	0.8210934996604919	2	49	4732244.486	93.75	0.8325867000967264	2	0
50.902351535856724	0.8195241000503302	2	49	4732245.201	93.75	0.7273525	1	0
51.721875635907054	0.8140636002644897	2	49	4732246.175	87.5	0.8808733001351357	2	0
52.535939236171544	0.8151281	2	49	4732246.907	93.75	0.7997709000483155	2	0
53.351067336276174	0.8143368000164628	1	49	4732247.861	81.25	0.9377284999936819	2	0
54.165404136292636	0.8118440993130207	2	49	4732248.565	93.75	0.8275210997089744	2	0
54.97724823560566	0.8116626003757119	2	49	4732249.387	93.75	0.8384725004434586	2	0
55.78891083598137	0.8093692995607853	1	0	0	0	0	0	0
56.598280135542154	0.8129034005105495	2	49	4732251.032	87.5	0.8620163006708026	2	0
57.411183536052704	0.8147212	2	49	4732251.91	81.25	0.9267755001783371	2	0
58.22590473573655	0.8173504006117582	2	49	4732252.609	93.75	0.8117821	2	0
59.04325513634831	0.8220632998272777	2	49	4732253.52	81.25	0.904713299	2	0
59.865318436175585	0.8127699997276068	2	49	4732254.353	81.25	0.9155298992991447	2	0
60.67808843590319	0.8126368997618556	1	0	0	0	0	0	0
61.49072533566505	0.8174651004374027	2	49	4732255.717	87.5	0.6543217	1	0
62.30819043610245	0.8163430001586676	2	49	4732256.63	100	0.7504266994073987	1	0
63.12453343626112	0.8177202995866537	2	49	4732257.754	62.5	1.0574560994282365	2	0
63.94225373584777	0.8211521999910474	1	49	4732258.331	93.75	0.8168906001374125	2	0
64.76340593583882	0.8211022997274995	2	49	4732259.151	93.75	0.8158617001026869	2	0
65.58450823556632	0.8150374004617333	2	49	4732259.96	93.75	0.8035239	2	0
66.39954563602805	0.8209403995424509	2	49	4732260.914	81.25	0.9426591	2	0
67.22048604	0.8131184000521898	2	49	4732261.69	81.25	0.8976704003289342	2	0
68.03360443562269	0.8064902005717158	2	49	4732262.419	93.75	0.813752401	2	0
68.84009463619441	0.8128104	2	49	4732263.522	56.25	1.1103822998702526	2	0
69.65290503576398	0.8215597001835704	2	49	4732264.091	87.5	0.8660991005599499	2	0
70.47446473594755	0.8224590998142958	2	49	4732265.028	75	0.9820869	2	0
71.29692383576185	0.8214821005240083	2	49	4732265.76	87.5	0.8913606004789472	2	0
72.11840593628585	0.8173348996788263	2	49	4732266.556	87.5	0.8655436998233199	2	0
72.93574083596468	0.8204134004190564	2	49	4732267.355	87.5	0.8477940000593662	2	0
73.75615423638374	0.8132399991154671	1	0	0	0	0	0	0
74.56939424	0.8218758003786206	2	49	4732268.866	93.75	0.7251884005963802	1	0
75.39127003587782	0.8171904003247619	2	49	4732269.892	81.25	0.9292462999001145	2	0
76.20846043620259	0.8131697000935674	2	49	4732270.827	62.5	1.046976499259472	2	0
77.02163013629615	0.8092792993411422	2	49	4732271.61	68.75	1.0168582992628217	2	0
77.83090944	0.8183137001469731	2	49	4732272.454	62.5	1.051486600190401	2	0
78.64922313578427	0.8225304000079632	2	49	4732273.301	62.5	1.0803022999316454	2	0
79.47175353579223	0.8147959997877479	1	0	0	0	0	0	0
80.28654953557998	0.8236732007935643	1	0	0	0	0	0	0
81.11022273637354	0.8219881998375058	2	49	4732275.244	75	0.5624314993619919	1	0
81.93221093621105	0.8128875996917486	2	49	4732276.372	87.5	0.8682262999936938	2	0
82.74509854	0.8251152997836471	2	49	4732277.24	81.25	0.9228622997179627	2	0
83.57021383568645	0.8203298998996615	2	49	4732278.054	81.25	0.9124603001400828	2	0
84.39054374	0.8231816003099084	2	49	4732278.987	68.75	1.0246485006064177	2	0
85.21372533589602	0.8160592997446656	2	49	4732279.65	87.5	0.8640234004706144	2	0
86.02978463564068	0.8118285005912185	2	49	4732280.586	75	0.9840056002140045	2	0
86.84161314	0.8167440993711352	1	0	0	0	0	0	0
87.65835723560303	0.8194069005548954	2	49	4732281.941	93.75	0.7104082005098462	1	0
88.47776413615793	0.8172322995960712	1	0	0	0	0	0	0
89.29499644	0.8113956	2	49	4732283.457	81.25	0.5903460001572967	1	0
90.10639203619212	0.8167452001944184	2	49	4732284.411	93.75	0.7323655998334289	1	0
90.92313723638654	0.8256842996925116	2	49	4732285.385	87.5	0.8899455	2	0
91.74882153607905	0.8163732998073101	2	49	4732286.214	87.5	0.8930238001048565	2	0
92.56519483588636	0.8241363996639848	2	49	4732287.298	50	1.161133799701929	2	0
93.38933123555034	0.8181441007182002	1	0	0	0	0	0	0
94.20747533626854	0.8215783992782235	2	49	4732288.393	81.25	0.6139505999162793	1	0
95.02905373554677	0.8190508000552654	2	49	4732289.559	75	0.9580775005742908	2	0
95.84810453560203	0.810929	2	49	4732290.452	68.75	1.031818900257349	2	0
96.65903353597969	0.8179395003244281	2	49	4732291.128	81.25	0.8969619004055858	2	0
97.47697303630412	0.8193437997251749	2	49	4732292.103	62.5	1.0544983996078372	2	0
98.29631683602929	0.8156452998518944	2	49	4732292.688	93.75	0.8199854	2	0
99.11196213588119	0.8098307996988297	2	49	4732293.64	75	0.9561189003288746	2	0
99.92179293558002	0.821165101	2	49	4732294.282	100	0.7883892003446817	1	0
100.74295803625137	0.8186323000118136	2	49	4732295.112	93.75	0.7971433997154236	2	0
101.56159033626318	0.8204782996326685	2	49	4732295.963	93.75	0.8291563000530005	2	0
102.38206863589585	0.8132897997274995	2	49	4732297.059	56.25	1.1051345001906157	2	0
103.19535843562335	0.8159078005701303	2	49	4732297.672	81.25	0.9048894001170993	2	0
104.01126623619348	0.8144088992848992	2	49	4732298.441	87.5	0.8582628993317485	2	0
104.82567513547838	0.8175935000181198	2	49	4732299.294	81.25	0.8967440007254481	2	0
105.6432686354965	0.8225393006578088	2	49	4732300.063	87.5	0.8480722000822425	2	0
106.4658079361543	0.8174164993688464	2	49	4732300.767	93.75	0.7289424994960427	1	0
107.28322443552315	0.8111624	2	49	4732301.656	93.75	0.8011630000546575	2	0
108.09438683558255	0.8195465002208948	2	49	4732302.51	87.5	0.8439089003950357	2	0
108.91393333580345	0.8145922003313899	2	49	4732303.388	81.25	0.9024782003834844	2	0
109.72852553613484	0.8168647000566125	2	49	4732304.141	93.75	0.8408741001039743	2	0
110.54539023619145	0.8187558995559812	1	0	0	0	0	0	0
111.36414613574743	0.8145786998793483	2	49	4732305.669	100	0.7334158001467586	1	0
112.17872483562678	0.8102117003872991	2	49	4732306.684	75	0.9338206006214023	2	0
112.98893653601408	0.8256078995764256	2	49	4732307.431	87.5	0.8706978997215629	2	0
113.8145444355905	0.815853501	2	49	4732308.254	87.5	0.8679910004138947	2	0
114.63039793632925	0.8214968992397189	2	49	4732309.271	62.5	1.068958600051701	2	0
115.45189483556896	0.8138327999040484	2	49	4732309.94	81.25	0.9166596001014113	2	0
116.26572763547301	0.8238964006304741	2	49	4732310.68	93.75	0.8429522002115846	2	0
117.08962403610349	0.8244404997676611	1	0	0	0	0	0	0
117.91406453587115	0.8221497004851699	2	49	4732312.47	75	0.9839591002091765	2	0
118.73621423635632	0.8168499991297722	2	49	4732313.185	87.5	0.8766791997477412	2	0
119.55306423548609	0.8170326007530093	2	49	4732314.05	81.25	0.9247883008792996	2	0
120.3700968362391	0.8235511993989348	2	49	4732314.776	93.75	0.8337755994871259	2	0
121.19364803563803	0.8223974006250501	2	49	4732315.661	87.5	0.895261601	2	0
122.01604543626308	0.8176568998023868	1	0	0	0	0	0	0
122.83370233606547	0.8204602999612689	2	49	4732317.12	93.75	0.7143743997439742	1	0
123.65416263602674	0.8226277995854616	2	49	4732318.123	81.25	0.8966653002426028	2	0
124.4767904356122	0.8156508998945355	2	49	4732318.977	81.25	0.9280853001400828	2	0
125.29244133550674	0.8139388002455235	2	49	4732319.99	56.25	1.1255668001249433	2	0
126.10638013575226	0.8112097000703216	2	49	4732320.62	75	0.9414940997958183	2	0
126.91758983582258	0.8102131001651287	2	49	4732321.408	81.25	0.9184285998344421	2	0
127.72780293598771	0.8122380003333092	2	49	4732322.242	75	0.9421301996335387	2	0
128.54004093632102	0.8260556999593973	2	49	4732322.967	87.5	0.8548844996839762	2	0
129.36609663628042	0.8227078998461366	1	49	4732323.704	100	0.7662924993783236	1	0
130.18880453612655	0.8219360001385212	2	49	4732324.621	87.5	0.8605500999838114	2	0
131.01074053626508	0.8253840999677777	2	49	4732325.323	93.75	0.7406028993427753	1	0
131.83612463623285	0.8123674001544714	2	49	4732326.165	100	0.7570354994386435	1	0
132.64849203638732	0.8158013997599483	2	49	4732326.862	87.5	0.6415542997419834	1	0
133.46429343614727	0.8236513994634151	2	49	4732327.872	93.75	0.8361233994364738	2	0
134.2879448356107	0.8141133	2	49	4732328.536	87.5	0.6761020002886653	1	0
135.10205813590437	0.810454	2	49	4732329.346	87.5	0.6720946002751589	1	0
135.91251213569194	0.8170688999816775	2	49	4732330.278	93.75	0.7936783004552126	2	0
136.72958103567362	0.8197512002661824	2	49	4732331.036	93.75	0.7348761	1	0
137.5493322359398	0.8155330996960402	2	49	4732331.855	93.75	0.7340230997651815	1	0
138.36486533563584	0.8212435003370047	2	49	4732332.799	87.5	0.8623866001144052	2	0
139.18610883597285	0.8147195000201464	2	49	4732333.663	81.25	0.9052564995363355	2	0
140.0008283	0.8149015000090003	2	49	4732334.399	93.75	0.8267288003116846	2	0
140.8157298	0.8153385994955897	2	49	4732335.43	68.75	1.0425247997045517	2	0
141.63106843549758	0.817123001	2	49	4732335.964	100	0.7611332004889846	1	0
142.44819143600762	0.8227575998753309	1	0	0	0	0	0	0
143.27094903588295	0.8150533996522427	2	49	4732337.573	93.75	0.7305768001824617	1	0
144.0860024355352	0.8103344002738595	2	49	4732338.511	87.5	0.8536871001124382	2	0
144.89633683580905	0.8226866004988551	2	49	4732339.312	87.5	0.8434324003756046	2	0
145.7190234363079	0.8136897999793291	2	49	4732340.217	81.25	0.9257638994604349	2	0
146.53271323628724	0.8129920000210404	2	49	4732340.941	87.5	0.8367025991901755	2	0
147.34570523630828	0.8136324994266033	2	49	4732341.779	87.5	0.8612814	2	0
148.15933773573488	0.815318801	2	49	4732342.868	56.25	1.1372451	2	0
148.97465653624386	0.8153098998591304	2	49	4732343.356	93.75	0.8099572993814945	2	0
149.7899664	0.8236189996823668	2	49	4732344.161	93.75	0.7997703002765775	2	0
150.61358543578535	0.8154135001823306	2	49	4732344.869	87.5	0.6841470999643207	1	0
151.42899893596768	0.8179794996976852	2	49	4732345.756	100	0.75566	1	0
152.24697843566537	0.8159857001155615	1	0	0	0	0	0	0
153.06296413578093	0.8241031002253294	2	49	4732347.477	93.75	0.842267401	2	0
153.88706723600626	0.8208707999438047	2	49	4732348.131	87.5	0.6720797000452876	1	0
154.70793803595006	0.8213716000318527	2	49	4732349.047	100	0.7674148995429277	1	0
155.52930963598192	0.8202139995992184	2	49	4732349.828	93.75	0.7266728999093175	1	0
156.34952363558114	0.8126169005408883	2	49	4732350.719	93.75	0.7977587999776006	2	0
157.16214053612202	0.8146628998219967	2	49	4732351.566	93.75	0.8316724998876452	2	0
157.97680343594402	0.8102812999859452	2	49	4732352.286	100	0.7369515998288989	1	0
158.78708473592997	0.8168972004204988	2	49	4732353.152	93.75	0.7930418998003006	2	0
159.60398193635046	0.814508599	2	49	4732354.083	81.25	0.9069008994847536	2	0
160.41849053557962	0.8149623004719615	2	49	4732354.797	93.75	0.8067954005673528	2	0
161.23345283605158	0.8155693998560309	2	49	4732355.662	87.5	0.8567679999396205	2	0
162.04902223590761	0.8218181002885103	1	0	0	0	0	0	0
162.87084033619612	0.8160312995314598	2	49	4732357.117	87.5	0.6743198996409774	1	0
163.68687163572758	0.8141428	2	49	4732358.194	81.25	0.9353886004537344	2	0
164.50101443566382	0.8143538003787398	2	49	4732359.052	75	0.9791827006265521	2	0
165.31536823604256	0.8185933	2	49	4732359.93	62.5	1.0427329996600747	2	0
166.13396153599024	0.8104379996657372	2	49	4732360.526	93.75	0.8201887002214789	2	0
166.94439953565598	0.8230347000062466	2	49	4732361.414	81.25	0.8977346001192927	2	0
167.76743423566222	0.8157251002267003	2	49	4732362.168	93.75	0.8290306003764272	2	0
168.58315933588892	0.8117326004430652	1	0	0	0	0	0	0
169.3948919	0.8176914993673563	2	49	4732363.688	93.75	0.7213058993220329	1	0
170.21258343569934	0.8174411999061704	2	49	4732364.608	93.75	0.8236346002668142	2	0
171.0300246356055	0.8323885006830096	2	49	4732365.44	93.75	0.8384722005575895	2	0
171.86241313628852	0.8120132992044091	2	49	4732366.291	87.5	0.8572343997657299	2	0
172.67442643549293	0.813340001	2	49	4732367.303	62.5	1.0567949004471302	2	0
173.48776643630117	0.8242044998332858	2	49	4732368.262	50	1.202840299345553	2	0
174.31197093613446	0.8156115999445319	2	49	4732369.055	50	1.1714952001348138	2	0
175.1275825	0.8144745994359255	2	49	4732369.892	50	1.192892599850893	2	0
175.94205713551491	0.8171614008024335	2	49	4732370.638	56.25	1.124256000854075	2	0
176.75921853631735	0.8235350996255875	2	49	4732371.257	81.25	0.9262751992791891	2	0
177.58275363594294	0.8212352003902197	2	49	4732372.055	81.25	0.9006796004250646	2	0
178.40398883633316	0.817340299	2	49	4732372.761	100	0.7856281995773315	1	0
179.22132913582027	0.8197672003880143	2	49	4732373.588	93.75	0.7951322002336383	2	0
180.04109633620828	0.8222078001126647	2	49	4732374.591	75	0.978554499	2	0
180.86330413632095	0.8154327999800444	2	49	4732375.222	93.75	0.7871021991595626	2	0
181.6787369	0.8252588994801044	2	49	4732376.056	93.75	0.8058535996824503	2	0
182.5039958357811	0.8319915998727083	2	49	4732377.04	75	0.9646632000803947	2	0
183.3359874356538	0.8231683000922203	2	49	4732377.873	75	0.9647647999227047	2	0
184.15915573574603	0.8229718003422022	2	49	4732378.593	87.5	0.8624097006395459	2	0
184.98212753608823	0.8224679995328188	2	49	4732379.61	62.5	1.056466699577868	2	0
185.80459553562105	0.8122974000871181	2	49	4732380.25	87.5	0.8734804000705481	2	0
186.61689293570817	0.8206628002226353	1	0	0	0	0	0	0
187.4375557359308	0.8172719003632665	2	49	4732381.685	87.5	0.6753053003922105	1	0
188.25482763629407	0.8153507998213172	2	49	4732382.706	87.5	0.8798576993867755	2	0
189.07017843611538	0.8143878998234868	2	49	4732383.393	100	0.7506757	1	0
189.88456633593887	0.8226039996370673	2	49	4732384.159	93.75	0.7027612999081612	1	0
190.70717033557594	0.8121227007359266	2	49	4732385.131	87.5	0.8518543001264334	2	0
191.51929303631186	0.8146567000076175	2	49	4732386.161	62.5	1.069671900011599	2	0
192.33394973631948	0.8152024997398257	2	49	4732386.818	81.25	0.9123653993010521	2	0
193.1491522360593	0.8168594995513558	2	49	4732387.634	81.25	0.9134010002017021	2	0
193.96601173561066	0.8133270004764199	2	49	4732388.441	81.25	0.9029079005122185	2	0
194.77933873608708	0.8211623001843691	2	49	4732389.19	93.75	0.8386774994432926	2	0
195.60050103627145	0.8184283999726176	2	49	4732389.98	93.75	0.8073891997337341	2	0
196.41892943624407	0.8107211999595165	2	49	4732390.823	87.5	0.8320947	2	0
197.2296506362036	0.8132512997835875	1	0	0	0	0	0	0
198.04290193598717	0.8208699002861977	2	49	4732392.274	87.5	0.6594225997105241	1	0
198.86377183627337	0.8133338000625372	2	49	4732393.381	75	0.9455097997561097	2	0
199.6771056363359	0.8196888	2	49	4732394.114	87.5	0.8655188	2	0
200.49679443612695	0.8155851000919938	2	49	4732394.924	87.5	0.8558377996087074	2	0
201.31237953621894	0.8210273999720812	2	49	4732395.817	81.25	0.9328595995903015	2	0
202.13340693619102	0.8139776000753045	2	49	4732396.665	75	0.9598310999572277	2	0
202.94738453626633	0.8158869994804263	2	49	4732397.436	81.25	0.9166052993386984	2	0
203.76327153574675	0.8256189003586769	2	49	4732398.368	68.75	1.0330346003174782	2	0
204.58889043610543	0.8233242994174361	2	49	4732399.067	81.25	0.9065175000578165	2	0
205.41221473552287	0.8204126004129648	2	49	4732399.914	81.25	0.9302763007581234	2	0
206.23262733593583	0.8220351003110409	2	49	4732400.619	93.75	0.8146513001993299	2	0
207.05466243624687	0.8200274994596839	2	49	4732401.472	87.5	0.8456930993124843	2	0
207.87468993570656	0.8227543001994491	2	49	4732402.313	87.5	0.8666794002056122	2	0
208.6974442	0.8218111004680395	2	49	4732403.068	93.75	0.7989245997741818	2	0
209.51925533637404	0.8165327999740839	2	49	4732403.878	93.75	0.7873207991942763	2	0
210.33578813634813	0.820584999	2	49	4732404.69	100	0.7825293997302651	1	0
211.15637313574553	0.8217111006379128	2	49	4732405.577	87.5	0.8490367997437716	2	0
211.97808423638344	0.8193864999338984	2	49	4732406.312	100	0.7625127993524075	1	0
212.79747073631734	0.8186724996194243	2	49	4732407.151	100	0.7820581998676062	1	0
213.61614323593676	0.8188255997374654	2	49	4732408.03	93.75	0.8422633996233344	2	0
214.43496883567423	0.8137707002460957	2	49	4732408.836	93.75	0.8290357002988458	2	0
215.24873953592032	0.8093301998451352	1	0	0	0	0	0	0
216.05806973576546	0.8196243001148105	2	49	4732410.315	87.5	0.6847104001790285	1	0
216.87769403588027	0.8114023003727198	2	49	4732411.469	68.75	1.0200428999960423	2	0
217.6890963	0.8192646997049451	2	49	4732412.049	93.75	0.7886015996336937	2	0
218.50836103595793	0.8117599003016949	2	49	4732412.841	100	0.7612509001046419	1	0
219.32012093625963	0.8152543995529413	1	0	0	0	0	0	0
220.13537533581257	0.8202921999618411	1	0	0	0	0	0	0
220.9556675357744	0.8222102001309395	2	49	4732415.267	93.75	0.7392393006011844	1	0
221.77787773590535	0.8179315999150276	2	49	4732416.126	100	0.7765178000554442	1	0
222.59580933582038	0.8274689000099897	2	49	4732417.003	93.75	0.8350897999480367	2	0
223.42327823583037	0.8128012	2	49	4732417.86	87.5	0.8647293001413345	2	0
224.23607943579555	0.8056544000282884	2	49	4732418.556	100	0.7476947996765375	1	0
225.04173383582383	0.8199918996542692	2	49	4732419.323	93.75	0.7090311	1	0
225.8617257354781	0.8238345002755523	2	49	4732420.415	75	0.9811553005129099	2	0
226.68556023575366	0.8161644004285336	2	49	4732421.246	68.75	0.9884301004931331	2	0
227.5017246361822	0.8167865993455052	2	49	4732421.921	87.5	0.8472178000956774	2	0
228.3185112355277	0.8121037008240819	2	49	4732422.612	93.75	0.7220966005697846	1	0
229.13061493635178	0.8227512994781137	2	49	4732423.474	100	0.7717324998229742	1	0
229.9533662358299	0.8214956000447273	2	49	4732424.251	93.75	0.7258633002638817	1	0
230.77486183587462	0.8270239001139998	2	49	4732424.992	87.5	0.6451607001945376	1	0
231.60188573598862	0.8227773997932673	2	49	4732426.032	87.5	0.8582854000851512	2	0
232.42466313578188	0.8155172998085618	2	49	4732426.933	75	0.9367193998768926	2	0
233.24018043559045	0.814712	2	49	4732427.653	87.5	0.8409093003720045	2	0
234.0548924356699	0.8164835004135966	2	49	4732428.321	93.75	0.6941272998228669	1	0
234.8713759360835	0.8155474998056889	1	0	0	0	0	0	0
235.68692343588918	0.8184423996135592	2	49	4732430.002	100	0.7432225001975894	1	0
236.50536583550274	0.8214136008173227	2	49	4732430.892	93.75	0.8145495001226664	2	0
237.32677943632007	0.8228230997920036	2	49	4732431.75	87.5	0.8517017997801304	2	0
238.14960253611207	0.8131213998422027	2	49	4732432.511	93.75	0.7896726001054049	2	0
238.96272393595427	0.8156569004058838	2	49	4732433.456	81.25	0.9217098001390696	2	0
239.77838083636016	0.8146436996757984	2	49	4732434.355	68.75	1.0049775997176766	2	0
240.59302453603595	0.8233503000810742	2	49	4732435.204	68.75	1.0394014995545149	2	0
241.41637483611703	0.8237450998276472	2	49	4732435.814	93.75	0.8259028000757098	2	0
242.24011993594468	0.8208678998053074	2	49	4732436.735	81.25	0.9233721001073718	2	0
243.06098783574998	0.8139327997341752	2	49	4732437.489	87.5	0.8564801001921296	2	0
243.87492063548416	0.8174543008208275	2	49	4732438.246	93.75	0.7996462006121874	2	0
244.6923749	0.8149116998538375	2	49	4732439.098	93.75	0.8343111993744969	2	0
245.50728663615882	0.8215333996340632	2	49	4732439.877	93.75	0.7982427999377251	2	0
246.3288200357929	0.8188911005854607	2	49	4732440.911	68.75	1.010623600333929	2	0
247.14771113637835	0.8145333994179964	2	49	4732441.601	87.5	0.8819032991304994	2	0
247.96224453579634	0.8171538	2	49	4732442.392	87.5	0.8583425004035234	2	0
248.77939833607525	0.8136500995606184	2	49	4732443.228	87.5	0.8764247996732593	2	0
249.59304843563586	0.8136024000123143	2	49	4732444.2	68.75	1.0356505000963807	2	0
250.40665083564818	0.8188129002228379	2	49	4732444.765	100	0.7869720999151468	1	0
251.22546373587102	0.8229491002857685	2	49	4732445.668	87.5	0.8703268002718687	2	0
252.04841283615679	0.8186512999236584	2	49	4732446.506	87.5	0.8859260994940996	2	0
252.86706413608044	0.8187875999137759	2	49	4732447.365	81.25	0.9257344994693995	2	0
253.68585173599422	0.8187947003170848	2	49	4732448.049	93.75	0.7918509999290109	2	0
254.5046464363113	0.8129385998472571	2	49	4732448.85	100	0.7732669999822974	1	0
255.31758503615856	0.8148868000134826	2	49	4732449.528	87.5	0.6391153996810317	1	0
256.13247183617204	0.8109236992895603	2	49	4732450.229	68.75	0.5245575001463294	1	0
256.9433955354616	0.8162698000669479	2	49	4732451.169	87.5	0.6538277007639408	1	0
257.75966533552855	0.815484201	2	49	4732452.348	68.75	1.0165306003764272	2	0
258.5751495361328	0.8168668001890182	2	49	4732452.942	93.75	0.7947614993900061	2	0
259.39201633632183	0.8190989997237921	2	49	4732453.631	87.5	0.6668603997677565	1	0
260.2111153360456	0.8152601001784205	2	49	4732454.44	87.5	0.6572105996310711	1	0
261.02637543622404	0.8190174	2	49	4732455.21	81.25	0.6119706993922591	1	0
261.8453928362578	0.8190763993188739	2	49	4732456.036	81.25	0.6187225999310613	1	0
262.6644692355767	0.8256435999646783	2	49	4732456.923	87.5	0.6870503006502986	1	0
263.49011283554137	0.8194179004058242	2	49	4732457.641	75	0.5792863005772233	1	0
264.3095307359472	0.8238704	1	0	0	0	0	0	0
265.1334011	0.8137959996238351	2	49	4732459.295	81.25	0.5895819002762437	1	0
265.94719713553786	0.8166209002956748	2	49	4732460.27	100	0.7511061001569033	1	0
266.76381803583354	0.8146887999027967	1	0	0	0	0	0	0
267.57850683573633	0.8090264005586505	2	49	4732462.022	87.5	0.8718269998207688	2	0
268.3875332	0.8197363000363111	2	49	4732462.834	87.5	0.8746767994016409	2	0
269.2072695363313	0.8164318995550275	2	49	4732463.967	50	1.1881438996642828	2	0
270.0237014358863	0.8132552998140454	2	49	4732464.557	75	0.9620113000273705	2	0
270.83695673570037	0.8150359001010656	2	49	4732465.296	81.25	0.8873839005827904	2	0
271.65199263580143	0.8209119997918606	2	49	4732466.149	81.25	0.9254270000383258	2	0
272.4729046355933	0.8129106005653739	1	0	0	0	0	0	0
273.28581523615867	0.8106366	2	49	4732467.582	93.75	0.7249024	1	0
274.09645183570683	0.8203543005511165	1	0	0	0	0	0	0
274.91680613625795	0.8157986998558044	1	49	4732469.117	81.25	0.6285469001159072	1	0
275.73260483611375	0.8235371997579932	2	49	4732470.195	87.5	0.891075	2	0
276.55614203587174	0.8181584998965263	2	49	4732471.057	81.25	0.9288229001685977	2	0
277.37430053576827	0.8116504000499845	1	0	0	0	0	0	0
278.18595093581825	0.8209661	2	49	4732472.532	100	0.774469	1	0
279.0069170361385	0.8153751995414495	1	0	0	0	0	0	0
279.8222922356799	0.8184634000062943	2	49	4732474.264	87.5	0.8703072005882859	2	0
280.6407556356862	0.8151868004351854	2	49	4732475.142	81.25	0.9296997003257275	2	0
281.4559424361214	0.8183380998671055	2	49	4732475.999	75	0.9714490994811058	2	0
282.2742805359885	0.8177821999415755	2	49	4732476.735	87.5	0.8893940998241305	2	0
283.0920627359301	0.8175707999616861	2	49	4732477.675	68.75	1.0114604998379946	2	0
283.90963353589177	0.8107506	1	0	0	0	0	0	0
284.7203841358423	0.8175750998780131	2	49	4732478.916	81.25	0.6235186001285911	1	0
285.53795923572034	0.8166474001482129	2	49	4732480.066	75	0.956759401	2	0
286.35460663586855	0.8164541004225612	2	49	4732480.812	87.5	0.8852500999346375	2	0
287.1710607362911	0.8178699994459748	2	49	4732481.591	87.5	0.8477548994123936	2	0
287.9889307357371	0.8210009997710586	2	49	4732482.533	75	0.9722153004258871	2	0
288.80993173550814	0.8219412006437778	2	49	4732483.342	75	0.9599594008177519	2	0
289.6318729361519	0.8173030000180006	2	49	4732484.015	93.75	0.8115234998986125	2	0
290.4491759361699	0.8101335996761918	1	0	0	0	0	0	0
291.2593095358461	0.8205941999331117	1	0	0	0	0	0	0
292.0799037357792	0.8150917999446392	2	49	4732486.366	93.75	0.7139787999913096	1	0
292.89499553572387	0.8185545	2	49	4732487.389	81.25	0.9219425	2	0
293.71355003584176	0.811638	2	49	4732488.248	75	0.9631733996793628	2	0
294.525188	0.8155471999198198	1	0	0	0	0	0	0
295.3407352361828	0.8230129	2	49	4732489.58	87.5	0.6670782994478941	1	0
296.16374813579023	0.8133056005463004	2	49	4732490.4	87.5	0.6643834998831153	1	0
296.97705373633653	0.8193786991760135	2	49	4732491.364	93.75	0.8152934992685914	2	0
297.79643243551254	0.822596001	2	49	4732492.118	100	0.7498897006735206	1	0
298.6190284	0.8128538997843862	2	49	4732493.09	81.25	0.8991396995261312	2	0
299.4318823358044	0.8132070004940033	2	49	4732494.04	68.75	1.0365736996755004	2	0
300.2450893362984	0.8186464998871088	2	49	4732494.698	87.5	0.8812132999300957	2	0
301.0637358361855	0.8215223997831345	2	49	4732495.362	93.75	0.7269177995622158	1	0
301.88525823596865	0.8203208995983005	2	49	4732496.306	87.5	0.8489282997325063	2	0
302.70557913556695	0.8241322003304958	2	49	4732497.087	93.75	0.8096302002668381	2	0
303.52971133589745	0.8156246	2	49	4732497.96	87.5	0.8589414	2	0
304.3453359361738	0.8229700997471809	1	0	0	0	0	0	0
305.168306	0.8155744997784495	2	49	4732499.259	68.75	0.5190095	1	0
305.9838805356994	0.8242560997605324	2	49	4732500.283	93.75	0.7275089006870985	1	0
306.80813663545996	0.8144445000216365	2	49	4732501.061	93.75	0.6811361005529761	1	0
307.6225811354816	0.812728601	2	49	4732502.019	93.75	0.8249001000076532	2	0
308.4353097360581	0.8177023995667696	1	0	0	0	0	0	0
309.2530121356249	0.8211256004869938	2	49	4732503.513	93.75	0.6884307004511356	1	0
310.0741377361119	0.8056365000084043	2	49	4732504.37	93.75	0.7242773994803429	1	0
310.8797742361203	0.8101602	2	49	4732505.19	100	0.7380805993452668	1	0
311.68993443623185	0.8204151000827551	2	49	4732506.044	100	0.7819598997011781	1	0
312.5103495363146	0.8206805000081658	2	49	4732506.997	81.25	0.9152835998684168	2	0
313.3310300363228	0.8166164997965097	2	49	4732507.77	87.5	0.8675448000431061	2	0
314.1476465361193	0.8217505998909473	2	49	4732508.622	81.25	0.9028995996341109	2	0
314.96939713601023	0.8224062	2	49	4732509.502	75	0.9611897002905607	2	0
315.79180333577096	0.8151281	2	49	4732510.249	87.5	0.8850557999685407	2	0
316.6069314358756	0.8073556004092097	2	49	4732510.901	93.75	0.7226120000705123	1	0
317.4142870362848	0.8124311994761229	1	49	4732511.743	100	0.7568461997434497	1	0
318.2267182357609	0.8241079999133945	2	49	4732512.584	100	0.7858351999893785	1	0
319.0508262356743	0.8135791998356581	2	49	4732513.422	93.75	0.799902	2	0
319.8644054	0.813548501	1	0	0	0	0	0	0
320.6779539361596	0.8129091998562217	2	49	4732514.986	100	0.7358168000355363	1	0
321.49086313601583	0.8214827002957463	2	49	4732515.816	100	0.7530822996050119	1	0
322.3123458363116	0.8203533999621868	2	49	4732516.625	100	0.7406618995591998	1	0
323.13269923627377	0.8169219996780157	2	49	4732517.413	93.75	0.7081295000389218	1	0
323.9496212359518	0.8183963000774384	2	49	4732518.292	100	0.7704018000513315	1	0
324.7680175360292	0.8199578998610377	2	49	4732519.192	87.5	0.8519045999273658	2	0
325.58797543589026	0.8180093001574278	2	49	4732520.011	87.5	0.8509657997637987	2	0
326.4059847360477	0.8227038001641631	2	49	4732520.757	100	0.7792915003374219	1	0
327.22868853621185	0.8239067997783422	2	49	4732521.536	93.75	0.7352516995742917	1	0
328.0525953359902	0.8170293997973204	2	49	4732522.396	100	0.7716279001906514	1	0
328.8696247357875	0.8185577997937799	2	49	4732523.158	93.75	0.7162361005321145	1	0
329.6881825355813	0.8149542007595301	2	49	4732524.1	87.5	0.8397661000490189	2	0
330.5031367363408	0.8189954999834299	1	0	0	0	0	0	0
331.32213223632425	0.8235845994204283	1	49	4732525.736	93.75	0.8419267991557717	2	0
332.1457168357447	0.8158675003796816	2	49	4732526.698	75	0.9804239999502897	2	0
332.96158433612436	0.8226940995082259	2	49	4732527.418	87.5	0.8847784	2	0
333.7842784356326	0.8121330998837948	2	49	4732528.191	87.5	0.8349755005910993	2	0
334.5964115355164	0.8260722002014518	2	49	4732529.108	81.25	0.9396191006526351	2	0
335.42248373571783	0.8311389004811645	1	0	0	0	0	0	0
336.2536226	0.8179870992898941	2	49	4732530.571	100	0.7461163997650146	1	0
337.0716097354889	0.8150615002959967	2	49	4732531.408	100	0.7646163003519177	1	0
337.8866712357849	0.8142114002257586	2	49	4732532.137	87.5	0.678825201	1	0
338.70088263601065	0.8234075	2	49	4732533.225	75	0.9524317998439074	2	0
339.5242901360616	0.8175558000802994	1	0	0	0	0	0	0
340.3418459361419	0.8186177993193269	2	49	4732534.622	93.75	0.7086950000375509	1	0
341.16046373546124	0.8228440005332232	2	49	4732535.397	87.5	0.6649979008361697	1	0
341.98330773599446	0.8202385995537043	2	49	4732536.485	81.25	0.9301910996437073	2	0
342.80354633554816	0.8248955002054572	2	49	4732537.174	93.75	0.798818801	2	0
343.6284418357536	0.8231036998331547	1	0	0	0	0	0	0
344.4515455355868	0.8217127006500959	2	49	4732538.702	87.5	0.6790276002138853	1	0
345.27325823623687	0.8238913994282484	2	49	4732539.516	87.5	0.671166199	1	0
346.0971496356651	0.8168171998113394	2	49	4732540.595	81.25	0.9265905003994703	2	0
346.91396683547646	0.8180376002565026	2	49	4732541.424	81.25	0.9378259005025029	2	0
347.73200443573296	0.8138094004243612	2	49	4732542.348	62.5	1.0444939006119967	2	0
348.5458138361573	0.8153890995308757	2	49	4732542.862	100	0.7447844995185733	1	0
349.3612029356882	0.8205105001106858	2	49	4732543.707	100	0.7736611999571323	1	0
350.1817134357989	0.8209882	2	49	4732544.433	87.5	0.6798640005290508	1	0
351.0027016354725	0.811021701	2	49	4732545.464	81.25	0.8899920005351305	2	0
351.8137233359739	0.8164798999205232	2	49	4732546.273	81.25	0.8880161000415683	2	0
352.63020323589444	0.8136879997327924	2	49	4732547.05	87.5	0.8485171003267169	2	0
353.44389123562723	0.8177145002409816	2	49	4732547.904	81.25	0.8880243999883533	2	0
354.2616057358682	0.8122207997366786	2	49	4732548.826	68.75	0.9921743	2	0
355.0738265356049	0.8173841005191207	2	49	4732549.496	87.5	0.8508691005408764	2	0
355.8912106	0.8101931000128388	2	49	4732550.251	93.75	0.7876671999692917	2	0
356.70140373613685	0.8160280995070934	2	49	4732551.067	93.75	0.7943307999521494	2	0
357.51743183564395	0.8106369003653526	2	49	4732551.855	100	0.7655994007363915	1	0
358.3280687360093	0.8184623997658491	2	49	4732552.811	81.25	0.9111880995333195	2	0
359.14653113577515	0.8153218999505043	2	49	4732553.595	87.5	0.8765612998977304	2	0
359.96185303572565	0.8138693002983928	1	0	0	0	0	0	0
360.77572233602405	0.8203208	2	49	4732555.119	100	0.7713890997692943	1	0
361.59604313597083	0.8131705997511744	2	49	4732556.175	68.75	1.006857399828732	2	0
362.4092137	0.8177535999566317	2	49	4732557.005	68.75	1.023680199868977	2	0
363.22696733567864	0.8225738005712628	2	49	4732557.687	87.5	0.8881235001608729	2	0
364.0495411362499	0.8174140993505716	2	49	4732558.533	81.25	0.9116931995376945	2	0
364.86695523560047	0.8169590001925826	2	49	4732559.39	75	0.9511184999719262	2	0
365.68391423579305	0.8183337999507785	1	0	0	0	0	0	0
366.50224803574383	0.8159656999632716	1	49	4732560.811	100	0.7368368003517389	1	0
367.3182137357071	0.8120494000613689	2	49	4732561.639	100	0.7490608999505639	1	0
368.1302631357685	0.8190189003944397	2	49	4732562.629	81.25	0.9271160997450352	2	0
368.9492820361629	0.8172904001548886	2	49	4732563.488	75	0.9672783995047212	2	0
369.7665724363178	0.8124661995097995	2	49	4732564.204	87.5	0.8658496998250484	2	0
370.5790386358276	0.8171517001464963	2	49	4732565.33	50	1.1793088000267744	2	0
371.3961903359741	0.8148683002218604	2	49	4732565.773	93.75	0.8054168997332454	2	0
372.21105863619596	0.8260313998907804	2	49	4732566.685	87.5	0.9022093992680311	2	0
373.03709003608674	0.8161948993802071	2	49	4732567.524	81.25	0.9156349999830127	2	0
373.85328493546695	0.810919501	2	49	4732568.456	68.75	1.0313173001632094	2	0
374.66420443635434	0.8250738997012377	2	49	4732569.063	93.75	0.8274751	2	0
375.4892783360556	0.8180408999323845	2	49	4732569.813	100	0.7521326998248696	1	0
376.30731923598796	0.8212590999901295	1	0	0	0	0	0	0
377.1285783359781	0.8199367001652718	1	0	0	0	0	0	0
377.94851503614336	0.8215581001713872	1	0	0	0	0	0	0
378.77007313631475	0.8221081998199224	2	49	4732573.087	100	0.7453804	1	0
379.5921813361347	0.8194829002022743	2	49	4732573.928	100	0.7642131997272372	1	0
380.41166423633695	0.8214018996804953	1	0	0	0	0	0	0
381.23306613601744	0.8137809000909328	2	49	4732575.793	68.75	0.9885940998792648	2	0
382.0468470361084	0.8167429994791746	2	49	4732576.61	68.75	0.9918773993849754	2	0
382.86359003558755	0.8232751004397869	2	49	4732577.669	43.75	1.2339800000190735	2	0
383.68686513602734	0.814343	2	49	4732578.113	87.5	0.8544899001717567	2	0
384.5012081358582	0.8166446	2	49	4732578.964	81.25	0.8914325004443526	2	0
385.3178527355194	0.8116503	2	49	4732579.685	93.75	0.7958888001739979	2	0
386.1295030359179	0.8157085999846458	2	49	4732580.477	100	0.7754629	1	0
386.9452116359025	0.8153997	2	49	4732581.482	75	0.9646222004666924	2	0
387.76061133574694	0.8168975999578834	2	49	4732582.275	75	0.9423613	2	0
388.5775089357048	0.8224038006737828	2	49	4732583.014	87.5	0.864787701	2	0
389.3999127363786	0.8133385991677642	1	0	0	0	0	0	0
390.2132513355464	0.8188321003690362	2	49	4732584.665	87.5	0.8796610999852419	2	0
391.0320834359154	0.8218208001926541	2	49	4732585.355	100	0.7509289002045989	1	0
391.85390423610806	0.8251396995037794	2	49	4732586.153	93.75	0.7273250995203853	1	0
392.67904393561184	0.8214231999590993	1	0	0	0	0	0	0
393.50046713557094	0.8146446002647281	2	49	4732587.809	93.75	0.7364939004182816	1	0
394.31511173583567	0.8229123000055552	2	49	4732588.674	100	0.7871567001566291	1	0
395.1380240358412	0.8204538002610207	2	49	4732589.429	93.75	0.7189603997394443	1	0
395.95847783610225	0.8207927001640201	2	49	4732590.304	100	0.7737815	1	0
396.77927053626627	0.8298470992594957	2	49	4732591.277	81.25	0.9259548997506499	2	0
397.60911763552576	0.8155665006488562	2	49	4732591.946	100	0.7649717004969716	1	0
398.4246841361746	0.8236704999580979	2	49	4732592.921	81.25	0.9246747996658087	2	0
399.2483546361327	0.8297803001478314	2	49	4732593.754	81.25	0.9336923994123936	2	0
400.07813493628055	0.8171392995864153	1	0	0	0	0	0	0
400.89527423586696	0.8138106996193528	2	49	4732595.298	93.75	0.8312820000573993	2	0
401.7090849354863	0.8312092004343867	2	49	4732596.043	100	0.7623402001336217	1	0
402.5402941359207	0.8223494002595544	2	49	4732596.785	87.5	0.6728876000270247	1	0
403.36264353618026	0.8163580996915698	2	49	4732597.684	100	0.7496095	1	0
404.1790016358718	0.8189319996163249	1	0	0	0	0	0	0
404.99793363548815	0.8180541004985571	2	49	4732599.448	87.5	0.8784792004153132	2	0
405.8159877359867	0.8204117994755507	2	49	4732600.309	81.25	0.9210745003074408	2	0
406.63639953546226	0.8320678006857634	2	49	4732600.899	87.5	0.6911914004012942	1	0
407.4684673	0.8174228994175792	2	49	4732601.734	93.75	0.6939829997718334	1	0
408.2858902355656	0.8252482004463673	2	49	4732602.446	75	0.5885917004197836	1	0
409.11113843601197	0.8181261997669935	1	0	0	0	0	0	0
409.92926463577896	0.8258803999051452	2	49	4732604.584	62.5	1.083242299966514	2	0
410.7551450356841	0.8159663006663322	2	49	4732605.198	87.5	0.8711929004639387	2	0
411.57111133635044	0.8173933997750282	1	0	0	0	0	0	0
412.38850473612547	0.8206565	2	49	4732606.786	93.75	0.8260821001604199	2	0
413.2091612359509	0.8127477001398802	2	49	4732607.696	81.25	0.9153461996465921	2	0
414.02190893609077	0.8190660001710057	2	49	4732608.363	100	0.7695691995322704	1	0
414.8409749362618	0.8220203993842006	2	49	4732609.015	81.25	0.6018881993368268	1	0
415.6629953	0.820775201	2	49	4732610.13	81.25	0.8948976006358862	2	0
416.4837705362588	0.8215521	2	49	4732611.159	56.25	1.1038283994421363	2	0
417.30532263591886	0.8183813001960516	1	0	0	0	0	0	0
418.1237039361149	0.8188998997211456	2	49	4732612.377	87.5	0.6820113994181156	1	0
418.94260383583605	0.8270474998280406	2	49	4732613.497	75	0.9830205999314785	2	0
419.7696513356641	0.8273916002362967	2	49	4732614.232	87.5	0.8901931000873446	2	0
420.5970429359004	0.8202253999188542	2	49	4732614.991	93.75	0.8226439002901316	2	0
421.41726833581924	0.8142756996676326	2	49	4732615.68	93.75	0.6906887	1	0
422.2315440354869	0.8153760004788637	2	49	4732616.372	75	0.5682452004402876	1	0
423.04692003596574	0.8180440999567509	1	49	4732617.282	87.5	0.6628676000982523	1	0
423.8649641359225	0.8170724995434284	2	49	4732618.285	87.5	0.8478475	2	0
424.6820366354659	0.8215471003204584	1	0	0	0	0	0	0
425.5035837357864	0.8180742999538779	2	49	4732619.558	68.75	0.4824769999831915	1	0
426.32165803574026	0.820384	2	49	4732620.454	75	0.5607059998437762	1	0
427.1420420361683	0.8128896001726389	2	49	4732621.537	93.75	0.8229537000879645	2	0
427.9549316363409	0.8188588991761208	2	49	4732622.488	75	0.9610472992062569	2	0
428.77379053551704	0.8176006004214287	2	49	4732623.416	62.5	1.0707820001989603	2	0
429.59139113593847	0.8168309	2	49	4732623.955	93.75	0.7915661996230483	2	0
430.4082220355049	0.8149270005524158	2	49	4732624.717	100	0.737041101	1	0
431.2231490360573	0.8128816	2	49	4732625.551	100	0.7561860997229815	1	0
432.0360306	0.8192766001448035	2	49	4732626.326	93.75	0.7180384993553162	1	0
432.8553072363138	0.8123130993917584	2	49	4732627.406	75	0.9786500995978713	2	0
433.6676203357056	0.8226065002381802	2	49	4732627.955	93.75	0.715824501	1	0
434.49022683594376	0.8129164995625615	1	0	0	0	0	0	0
435.3031433355063	0.8180764000862837	1	0	0	0	0	0	0
436.1212197355926	0.8193049998953938	2	49	4732630.564	87.5	0.8708883002400398	2	0
436.9405247	0.8179612001404166	2	49	4732631.487	75	0.9747124006971717	2	0
437.7584859356284	0.8156302003189921	1	0	0	0	0	0	0
438.5741161359474	0.8219489995390177	2	49	4732633.234	62.5	1.0885354997590184	2	0
439.3960651354864	0.8190655000507832	2	49	4732634.103	56.25	1.1356166005134583	2	0
440.2151306355372	0.8151916	2	0	0	0	0	0	0
441.03032223600894	0.8176520997658372	2	49	4732635.138	75	0.5362767996266484	1	0
441.8479743357748	0.8156591998413205	2	49	4732636.395	75	0.9756575999781489	2	0
442.6636335356161	0.8212732002139091	2	49	4732637.117	87.5	0.8811239004135132	2	0
443.4849067	0.8162189004942775	2	49	4732637.918	87.5	0.8617082005366683	2	0
444.3011256363243	0.8159073991701007	2	49	4732639.013	56.25	1.1404100991785526	2	0
445.1170330354944	0.8106182999908924	2	49	4732639.751	62.5	1.0626093000173569	2	0
445.9276513354853	0.8246179008856416	2	49	4732640.359	87.5	0.8598381001502275	2	0
446.7522692363709	0.8140988992527127	1	0	0	0	0	0	0
447.56636813562363	0.8187313005328178	2	49	4732641.968	93.75	0.8303447999060154	2	0
448.38509943615645	0.8141043996438384	2	49	4732642.633	87.5	0.6764759002253413	1	0
449.1992038358003	0.8138509998098016	1	0	0	0	0	0	0
450.0130548356101	0.8163757007569075	2	49	4732644.466	87.5	0.8816828	2	0
450.8294305	0.8163026999682188	2	49	4732645.163	100	0.7617256995290518	1	0
451.6457332363352	0.8206624994054437	1	0	0	0	0	0	0
452.46639573574066	0.8309920998290181	1	0	0	0	0	0	0
453.2973878355697	0.8133944999426603	2	49	4732647.597	93.75	0.7274168003350496	1	0
454.11078233551234	0.8183448007330298	2	49	4732648.484	93.75	0.8014358002692461	2	0
454.92912713624537	0.8146666996181011	2	49	4732649.39	81.25	0.8886877996847034	2	0
455.74379383586347	0.8229262996464968	2	49	4732650.139	93.75	0.8231293996796012	2	0
456.56672013550997	0.8214562004432082	2	49	4732651.008	87.5	0.8692013006657362	2	0
457.3881763359532	0.8163026003167033	2	49	4732651.734	100	0.7739369999617338	1	0
458.2044789362699	0.8140469994395971	2	49	4732652.509	100	0.7325764996930957	1	0
459.0185259357095	0.821496801	2	49	4732653.427	93.75	0.8364188000559807	2	0
459.8400227	0.8243541000410914	2	49	4732654.331	81.25	0.9190334994345903	2	0
460.6643768362701	0.8156900992617011	2	49	4732655.055	93.75	0.8185278000310063	2	0
461.4800669355318	0.8192309001460671	2	49	4732655.866	93.75	0.8144335001707077	2	0
462.29929783567786	0.8200933001935482	2	49	4732656.767	81.25	0.8957030000165105	2	0
463.1193911358714	0.8264314997941256	2	49	4732657.578	87.5	0.8867995999753475	2	0
463.94582263566554	0.822053	2	49	4732658.337	93.75	0.8194591999053955	2	0
464.76787563599646	0.8295449996367097	2	49	4732659.335	75	0.9953487003222108	2	0
465.59742063563317	0.8149688001722097	2	49	4732659.988	93.75	0.8186037000268698	2	0
466.4123894358054	0.8224264997988939	2	49	4732660.907	81.25	0.9227320002391934	2	0
467.2348159356043	0.8295205999165773	2	49	4732661.703	87.5	0.8966861004009843	2	0
468.06433653552085	0.8138570003211498	2	49	4732662.559	81.25	0.9229100001975894	2	0
468.8781935	0.8160394998267293	2	49	4732663.355	81.25	0.9051462	2	0
469.69423303566873	0.8189321998506784	2	49	4732664.13	87.5	0.8641881998628378	2	0
470.5131652355194	0.8243782008066773	2	49	4732664.852	100	0.7672224007546902	1	0
471.3375434363261	0.8202551994472742	2	49	4732665.715	93.75	0.8060610992833972	2	0
472.15779863577336	0.8251994	2	49	4732666.585	87.5	0.8556575002148747	2	0
472.98299803584814	0.8213413003832102	2	49	4732667.423	87.5	0.8685849998146296	2	0
473.80433933623135	0.816950399	2	49	4732668.192	93.75	0.8159403000026941	2	0
474.62128973565996	0.8167970003560185	2	49	4732669.174	75	0.9812705	2	0
475.4380867	0.8289465997368097	2	49	4732669.923	81.25	0.9132968001067638	2	0
476.2670333357528	0.8133046999573708	2	49	4732670.785	75	0.9464909005910158	2	0
477.08033803571016	0.8169040000066161	2	49	4732671.538	87.5	0.8863216005265713	2	0
477.8972420357168	0.8196168998256326	2	49	4732672.593	56.25	1.1235418999567628	2	0
478.7168589355424	0.8198605999350548	2	49	4732673.174	87.5	0.8854841003194451	2	0
479.53671953547746	0.8253820007666945	2	49	4732673.986	87.5	0.8778459001332521	2	0
480.36210153624415	0.8201110996305943	2	49	4732674.789	87.5	0.8554787999019027	2	0
481.18221263587475	0.8120590001344681	2	49	4732675.535	93.75	0.7813264997676015	2	0
481.9942716360092	0.8219632999971509	1	0	0	0	0	0	0
482.81623493600637	0.8185884	1	0	0	0	0	0	0
483.6348233	0.8289950992912054	2	49	4732678.101	87.5	0.8947438998147845	2	0
484.4638184355572	0.8211171999573708	2	49	4732679.004	75	0.9681314006447792	2	0
485.28493563551456	0.8203386999666691	2	49	4732679.719	87.5	0.8627174003049731	2	0
486.1052743354812	0.8230901006609201	2	49	4732680.716	68.75	1.038602700456977	2	0
486.92836443614215	0.8183009997010231	2	49	4732681.536	68.75	1.0363785000517964	2	0
487.74666543584317	0.8167848996818066	2	49	4732682.333	68.75	1.0143357003107667	2	0
488.5634503	0.8119419002905488	2	49	4732683.007	87.5	0.8718096008524299	2	0
489.3753922358155	0.8279777998104692	2	49	4732683.759	93.75	0.8123476998880506	2	0
490.20337	0.8215275006368756	2	49	4732684.626	87.5	0.8510982003062963	2	0
491.02489753626287	0.8183661997318268	2	49	4732685.504	81.25	0.9072830993682146	2	0
491.8432637359947	0.8209112	2	49	4732686.649	43.75	1.233572999946773	2	0
492.66417493578047	0.8244529003277421	2	49	4732687.036	93.75	0.7999077998101711	2	0
493.4886278361082	0.8155207997187972	1	0	0	0	0	0	0
494.3041486	0.8180534	2	49	4732688.773	81.25	0.8968926	2	0
495.122202	0.8198236003518105	2	49	4732689.63	81.25	0.9360670996829867	2	0
495.9420256363228	0.821476299	2	49	4732690.481	75	0.9672753997147083	2	0
496.7635019356385	0.8254097001627088	2	49	4732691.112	100	0.7765450002625585	1	0
497.5889116358012	0.8182265004143119	2	49	4732691.962	93.75	0.8015262996777892	2	0
498.4071381362155	0.8165604993700981	2	49	4732692.749	100	0.7698483001440763	1	0
499.2236986355856	0.8202560003846884	2	49	4732693.66	87.5	0.8646782003343105	2	0
500.0439546359703	0.8137101996690035	2	49	4732694.485	87.5	0.8693209001794457	2	0
500.8576648356393	0.8227821001783013	2	49	4732695.412	75	0.9826681	2	0
501.6804469358176	0.8227043999359012	2	49	4732696.095	93.75	0.8426489997655153	2	0
502.5031513357535	0.8184280004352331	2	49	4732696.729	87.5	0.6544757001101971	1	0
503.32157933618873	0.8297357996925712	2	49	4732697.237	50	0.3435316001996398	1	0
504.1513151358813	0.8196171997115016	2	49	4732698.129	56.25	0.4059945000335574	1	0
504.9709323355928	0.8169717006385326	2	49	4732699.356	93.75	0.8133887005969882	2	0
505.78790403623134	0.8207128001376987	2	49	4732700.23	87.5	0.8704987000674009	2	0
506.60861683636904	0.8234909996390343	2	49	4732701.019	93.75	0.8386907000094652	2	0
507.4321078360081	0.8221	2	49	4732701.731	93.75	0.7274332996457815	1	0
508.2542078355327	0.8113956	2	49	4732702.471	87.5	0.6451966008171439	1	0
509.06560343597084	0.8223449001088738	2	0	0	0	0	0	0
509.8879483360797	0.8156543001532555	2	49	4732703.941	68.75	0.48140310030430555	1	0
510.7036026	n/a	0	0	0	0	0	0	0