onset	duration	cue	constant1	timestamp	stimulus_coherence	response_time	response	constant2
20.47891101836467	0.7992257000005338	2	49	5695.528202	81.25	0.9035420000000158	2	0
21.278136718365204	0.7989813999993203	2	49	5696.17116	100	0.7472741999999926	1	0
22.077118118364524	0.7985940000007758	2	49	5697.036517	93.75	0.8136492000003273	2	0
22.87571212	0.7984646999993856	2	49	5697.706736	93.75	0.6852743999997983	1	0
23.674176818364685	0.7971204000004946	2	49	5698.537412	93.75	0.7174855000002935	1	0
24.47129721836518	0.7982960999997886	2	49	5699.445484	87.5	0.8284377999998469	2	0
25.26959331836497	0.7973966999998083	2	49	5700.181649	100	0.7663058999996792	1	0
26.066990018364777	0.7985553999997137	2	49	5700.997674	93.75	0.7849343999996563	2	0
26.86554541836449	0.7989316000002873	2	49	5701.815704	93.75	0.8044093000007706	2	0
27.664477018364778	0.7989895000000615	2	49	5702.537733	100	0.7275070000005144	1	0
28.46346651836484	0.7982375999999931	2	49	5703.358795	100	0.7495792	1	0
29.261704118364833	0.7976242000004277	2	49	5704.130344	100	0.7228908999995838	1	0
30.05932831836526	0.7955004999994344	2	49	5704.954744	100	0.7496660999995584	1	0
30.854828818364695	0.7964361000003919	2	49	5705.753686	100	0.7531077000003279	1	0
31.651264918365086	0.7990755999999237	2	49	5706.506141	93.75	0.7091268	1	0
32.45034051836501	0.7982334999996965	2	49	5707.33482	100	0.7387297999994189	1	0
33.24857401836471	0.7975272000003315	2	49	5708.20879	93.75	0.8144664999999804	2	0
34.04610121836504	0.7974045999999362	2	49	5709.003894	93.75	0.8120429000000513	2	0
34.843505818364974	0.8003446000002441	2	49	5709.851222	87.5	0.8619671999995262	2	0
35.64385041836522	0.7978534999992917	2	49	5710.56823	93.75	0.7786304999999629	2	0
36.44170391836451	0.7966959000004863	2	49	5711.384156	93.75	0.7967027000004236	2	0
37.23839982	0.8003442999997787	2	49	5712.23998	87.5	0.8558308000001489	2	0
38.038744118364775	0.8002189999997427	2	49	5712.932614	100	0.7481205000003683	1	0
38.83896311836452	0.8688140000003841	2	49	5713.73091	93.75	0.7461975000005623	1	0
39.70777712	0.7981416000002355	2	49	5714.606957	100	0.7534306999996261	1	0
40.50591871836514	0.7994380000000092	2	49	5715.58808	75	0.9364121999997224	2	0
41.30535671836515	0.8003259999995862	2	49	5716.278308	87.5	0.8272014	2	0
42.10568271836473	0.7993152999997619	2	49	5717.238087	68.75	0.9866547000001447	2	0
42.904998018364495	0.8005532000006497	2	49	5717.7669	93.75	0.7161525000001348	1	0
43.705551218365144	0.7997091999995973	2	49	5718.61291	100	0.7616090999999869	1	0
44.50526041836474	0.7985814000003302	1	0	0	0	0	0	0
45.30384181836507	0.7990761	2	49	5720.502185	62.5	1.0525933999997505	2	0
46.102917918365165	0.7999427999993713	2	49	5720.969115	93.75	0.7204474000000118	1	0
46.902860718364536	0.7996511000001192	2	49	5721.869071	93.75	0.8204605000000811	2	0
47.702511818364655	0.7991062000000966	2	49	5722.55945	93.75	0.7111885000003895	1	0
48.50161801836475	0.7991462999998475	2	49	5723.294613	87.5	0.6472456999999849	1	0
49.30076432	0.8000428000004831	1	0	0	0	0	0	0
50.10080711836508	0.7996148000001995	1	0	0	0	0	0	0
50.90042191836528	0.8011148999994475	2	0	0	0	0	0	0
51.70153681836473	0.8006261999998969	2	49	5726.296057	62.5	0.4487705999999889	1	0
52.50216301836463	0.7988750000004075	2	49	5727.289661	87.5	0.6417484000003242	1	0
53.301038018365034	0.7996259000001373	2	49	5728.144953	93.75	0.6981659000002765	1	0
54.10066391836517	0.8000303999997413	2	49	5728.95936	93.75	0.7129464999998163	1	0
54.90069431836491	0.8008504999997967	2	49	5729.696131	87.5	0.6496871999997893	1	0
55.70154481836471	0.7995411000001695	2	49	5730.621507	100	0.7742127999999866	1	0
56.50108591836488	0.7993387999995321	2	49	5731.40574	100	0.7589041999999608	1	0
57.30042471836441	0.7994086000007883	2	49	5732.224675	93.75	0.7785007000002224	2	0
58.09983332	0.7988242999999784	2	49	5733.089496	87.5	0.8439131999994061	2	0
58.89865761836518	0.7990806999996494	2	49	5733.893118	87.5	0.8487109999996392	2	0
59.69773831836483	0.8003676999996969	2	49	5734.584535	100	0.7410472999999911	1	0
60.498106018364524	0.7999698000003264	2	49	5735.452943	93.75	0.8090878000002704	2	0
61.29807581836485	0.8003840000001219	2	49	5736.330788	81.25	0.8869631999996272	2	0
62.09845981836497	0.7997675999995408	2	49	5737.098648	87.5	0.8544390999995812	2	0
62.89822741836451	0.7993856000002779	1	0	0	0	0	0	0
63.69761301836479	0.8000277999999525	2	49	5738.777746	75	0.9343835999998191	2	0
64.49764081836474	0.7997078	2	49	5739.5176	81.25	0.8742102000005616	2	0
65.29734862	0.7992909000004147	2	49	5740.124735	93.75	0.6816370000005918	1	0
66.09663951836501	0.8000745	2	49	5741.056042	93.75	0.8136526999996931	2	0
66.89671401836495	0.7982346	2	49	5742.004177	75	0.961714	2	0
67.69494861836483	0.7994662999999491	2	49	5742.585941	100	0.7452427999996871	1	0
68.49441491836478	0.7989729000000807	2	49	5743.445623	93.75	0.8054586	2	0
69.29338781836486	0.7995625000003201	2	49	5744.114907	93.75	0.6757696000004216	1	0
70.09295031836518	0.8004407999997056	2	49	5744.958753	93.75	0.7200530000000072	1	0
70.89339111836489	0.7988263	1	0	0	0	0	0	0
71.69221741836463	0.7992295000003651	2	49	5746.735562	81.25	0.897595	2	0
72.49144692	0.8006638	2	49	5747.362037	100	0.7248406999997314	1	0
73.29211071836471	0.7998050000005605	2	49	5748.178358	100	0.7404974999999467	1	0
74.09191571836527	0.7996180999998614	2	49	5749.066087	87.5	0.8284217999998873	2	0
74.89153381836513	0.7995700999999826	2	49	5749.75028	93.75	0.7129971999993359	1	0
75.69110391836512	0.8001752000000124	2	49	5750.727199	81.25	0.8903456999996706	2	0
76.49127911836513	0.8013477999993484	2	49	5751.515219	81.25	0.8781903999997667	2	0
77.29262691836448	0.7993498000005275	2	49	5752.180541	100	0.7421647	1	0
78.09197672	0.7987034999996467	2	49	5753.030382	93.75	0.7926562000002377	2	0
78.89068021836465	0.799699	2	49	5753.757949	93.75	0.7215198000003511	1	0
79.69037922	0.8003205000004527	2	49	5754.636261	93.75	0.8001328000000285	2	0
80.49069971836525	0.7994277999996484	2	49	5755.572509	75	0.9360594999998284	2	0
81.29012752	0.7986583000001701	2	49	5756.473222	62.5	1.0373452000003454	2	0
82.08878581836507	0.7992560000002413	1	0	0	0	0	0	0
82.88804181836531	0.8008830999997372	2	49	5757.988228	75	0.9544371999991199	2	0
83.68892491836505	0.7992779999995037	2	49	5758.52046	93.75	0.6857860000000073	1	0
84.48820291836455	0.7984025000005204	2	49	5759.348195	93.75	0.7142426000000341	1	0
85.28660541836507	0.7995765999994546	2	49	5760.126629	93.75	0.6942745999995168	1	0
86.08618201836452	0.7974546000004921	2	49	5761.031314	93.75	0.7993826000001718	2	0
86.88363661836502	0.7983322999998563	2	49	5761.817586	93.75	0.7882001999996646	2	0
87.68196891836487	0.7997009999999136	2	49	5762.639386	93.75	0.8116672	2	0
88.48166991836479	0.8000449999999546	2	49	5763.329538	93.75	0.7021184000004723	1	0
89.28171491836474	0.8001919999996971	2	49	5764.232451	93.75	0.8049863000005644	2	0
90.08190691836444	0.7992032000001927	2	49	5764.984466	100	0.7568097000003036	1	0
90.88111011836463	0.7996214000004329	1	0	0	0	0	0	0
91.68073151836506	0.7994810000000143	2	49	5766.511837	93.75	0.6853556999994908	1	0
92.48021251836508	0.8003350999997565	2	49	5767.284748	87.5	0.6587861999996676	1	0
93.28054761836484	0.7998220999998011	1	49	5768.153607	100	0.7273096999997506	1	0
94.08036971836464	0.8012128000000303	2	49	5768.992443	100	0.7663241000000198	1	0
94.88158251836467	0.8013516000000891	2	49	5769.79027	100	0.7629378999999972	1	0
95.68293411836476	0.7994931000002907	1	49	5770.61168	93.75	0.7829960999997638	2	0
96.48242721836505	0.7981078000002526	2	49	5771.43486	93.75	0.8066836999996667	2	0
97.28053502	0.8010036999994554	2	49	5772.328783	81.25	0.9024984999996377	2	0
98.08153871836475	0.8000657	1	0	0	0	0	0	0
98.88160441836499	0.7994143999994776	2	49	5773.911996	81.25	0.8846425000001545	2	0
99.68101881836446	0.8003801000004387	2	49	5774.490509	87.5	0.6637412	1	0
100.4813989183649	0.8014513	1	0	0	0	0	0	0
101.28285021836473	0.7991431999998895	1	0	0	0	0	0	0
102.08199341836462	0.8003890999998475	1	0	0	0	0	0	0
102.88238251836447	0.7997082000001683	2	49	5777.743792	93.75	0.7156604000001607	1	0
103.68209071836463	0.7988736000006611	2	49	5778.744714	81.25	0.9168736999999965	2	0
104.4809643183653	0.7991323999995075	2	49	5779.354618	100	0.7279038999995464	1	0
105.2800967183648	0.7989471999999296	2	49	5780.209993	93.75	0.7841465999999855	2	0
106.07904391836473	0.7997550000000047	2	49	5780.940045	93.75	0.7152516000005562	1	0
106.87879891836474	0.7987369000002218	2	49	5781.774064	100	0.7495156000004499	1	0
107.67753581836496	0.7991075	2	49	5782.680907	87.5	0.8576221000002988	2	0
108.47664331836495	0.7986512999996194	2	49	5783.462929	87.5	0.8405359999997017	2	0
109.27529461836457	0.7986250000003565	2	49	5784.124769	93.75	0.7037251000001561	1	0
110.07391961836493	0.8000720000000001	2	49	5785.012956	93.75	0.7932866000001013	2	0
110.87399161836493	0.7984968999999182	2	49	5785.953171	75	0.9334295999997266	2	0
111.67248851836484	0.8005693000004612	2	49	5786.767422	75	0.9491839000002074	2	0
112.4730578183653	0.7996031999991828	2	49	5787.490056	81.25	0.8712486999993416	2	0
113.27266101836449	0.7986113000006299	2	49	5788.430364	68.75	1.0119538000008106	2	0
114.07127231836512	0.7987057000000277	1	49	5788.968342	100	0.7513197999996919	1	0
114.86997801836515	0.7992641000000731	2	49	5789.990349	68.75	0.9746212999998534	2	0
115.66924211836522	0.7995274999993853	2	49	5790.525728	93.75	0.7107360999998491	1	0
116.4687696183646	0.8003883000001224	2	49	5791.254264	87.5	0.6397451000002548	1	0
117.26915791836473	0.7999833000003491	2	49	5792.166285	100	0.7513773999999103	1	0
118.06914121836508	0.7992829999993774	1	0	0	0	0	0	0
118.86842421836445	0.7992324000006192	2	49	5793.928431	81.25	0.9142578000000867	2	0
119.66765661836507	0.7988200999998298	2	49	5794.557338	100	0.7439315999999963	1	0
120.4664767183649	0.7992643	2	49	5795.484415	81.25	0.8721884999995382	2	0
121.26574101836468	0.7991767000003165	1	0	0	0	0	0	0
122.0649177	0.7982138999996096	2	49	5796.953471	100	0.7428042000001369	1	0
122.8631316183646	0.7992045999999391	2	49	5797.821621	93.75	0.8127400000003036	2	0
123.66233621836454	0.7985214999998789	2	49	5798.581831	93.75	0.7737454000007347	2	0
124.46085771836442	0.8005936	2	49	5799.285577	93.75	0.6789694	1	0
125.26145131836529	0.8002995999995619	2	49	5800.123333	93.75	0.7161322999991171	1	0
126.06175091836485	0.7981636000004073	2	49	5800.862239	87.5	0.6547391	1	0
126.85991451836526	0.7995001	2	49	5801.817909	93.75	0.8122449999991659	2	0
127.65941461836519	0.8000819999997475	2	49	5802.673495	87.5	0.8683308999998189	2	0
128.45949661836494	0.8006468000003224	2	49	5803.3428	100	0.7375537999996595	1	0
129.26014341836526	0.7990044999996826	2	49	5804.097827	93.75	0.6919339999994918	1	0
130.05914791836494	0.7992570999995223	2	49	5804.862911	87.5	0.6580134999994698	1	0
130.85840501836446	0.8007500000003347	2	49	5805.795748	93.75	0.7915935999999419	2	0
131.6591550183648	0.7995038999997632	2	49	5806.503015	93.75	0.6981107	1	0
132.45865891836456	0.8012766000001648	2	49	5807.319787	93.75	0.7153783000003386	1	0
133.25993551836473	0.8022501000004922	2	49	5808.174728	100	0.7690434000005553	1	0
134.06218561836522	0.7992311999996673	1	0	0	0	0	0	0
134.8614168183649	0.8004136999998082	1	0	0	0	0	0	0
135.6618305183647	0.8005822000004628	2	49	5810.643087	87.5	0.8355072000003929	2	0
136.46241271836516	0.8007417999997415	2	49	5811.348246	100	0.7400834000000032	1	0
137.2631545183649	0.7999919000003501	2	49	5812.260909	87.5	0.8520049999997354	2	0
138.06314641836525	0.8004684999996243	2	49	5813.044062	87.5	0.8351657999992312	2	0
138.86361491836487	0.7997777000000497	2	49	5814.000004	68.75	0.9906393999999636	2	0
139.66339261836492	0.8005154000002221	2	49	5814.629705	93.75	0.8205625999999029	2	0
140.46390801836515	0.7991613999993206	2	49	5815.330809	100	0.7211517999994612	1	0
141.26306941836447	0.7997537000001103	2	49	5816.183312	93.75	0.7744935000000623	2	0
142.06282311836458	0.8004012999999759	2	49	5817.034986	87.5	0.8264136000007056	2	0
142.86322441836455	0.7982335	1	0	0	0	0	0	0
143.66145791836516	0.7997464999998556	2	49	5818.733912	75	0.9267049999998562	2	0
144.4612044	0.7987885000002279	2	49	5819.400405	93.75	0.7934516	2	0
145.25999291836524	0.8005624999996144	2	49	5820.232952	87.5	0.82721	2	0
146.06055541836486	0.7986109000003125	2	49	5820.990227	93.75	0.7839225999996415	2	0
146.85916631836517	0.8004235999997036	2	49	5821.773142	100	0.7682263999995484	1	0
147.65958991836487	0.7999595999999656	2	49	5822.528337	93.75	0.7229971999995541	1	0
148.45954951836484	0.7995098999999755	2	49	5823.40626	93.75	0.8009615000000849	2	0
149.2590594183648	0.7997426000001724	2	49	5824.203021	93.75	0.7982119999996939	2	0
150.058802	0.8002741000000242	2	49	5825.230077	62.5	1.025525899999593	2	0
150.8590761	0.7992944999996325	2	49	5825.962374	75	0.9575482000000193	2	0
151.65837061836464	0.8009812999998758	2	49	5826.771284	75	0.9671643000001495	2	0
152.45935191836452	0.8010315999999875	2	49	5827.493434	81.25	0.8883325000006153	2	0
153.2603835183645	0.8001237000007677	2	49	5828.421338	68.75	1.015205500000775	2	0
154.06050721836527	0.7999646999996912	1	0	0	0	0	0	0
154.86047191836496	0.7989285000003292	2	49	5829.799353	93.75	0.7931312000000617	2	0
155.6594004183653	0.7990410999991582	2	49	5830.628422	87.5	0.8232717	2	0
156.45844151836445	0.7981843000006847	2	49	5831.410565	93.75	0.8063741000005393	2	0
157.25662581836514	0.8006947999992917	2	49	5832.172556	100	0.7701802999999927	1	0
158.05732061836443	0.8009633000001486	2	49	5832.937384	100	0.7343140000002677	1	0
158.85828391836458	0.7995103000002928	2	49	5833.731372	100	0.7273388000003251	1	0
159.65779421836487	0.7993386999996801	2	49	5834.742827	75	0.9392830999995567	2	0
160.45713291836455	0.8016138000002684	1	0	0	0	0	0	0
161.25874671836482	0.7997568999999203	2	49	5836.054475	87.5	0.6499790999996549	1	0
162.05850361836474	0.8006857999998829	2	49	5837.071349	87.5	0.8670954999997775	2	0
162.85918941836462	0.7992309999999634	2	49	5837.760384	100	0.7554454000000987	1	0
163.65842041836459	0.8001917999999932	2	49	5838.628371	87.5	0.8242012999999133	2	0
164.45861221836458	0.8015563	2	49	5839.730619	50	1.126256999999896	2	0
165.26016851836448	0.7980874000004405	2	49	5840.194471	93.75	0.7885527000007642	2	0
166.05825591836492	0.8007829999996829	2	49	5841.060784	87.5	0.8567783999997118	2	0
166.8590389183646	0.8016695000005711	2	49	5841.79557	93.75	0.7907812000003105	2	0
167.66070841836518	0.7997730999995838	2	49	5842.524427	93.75	0.7179692999998224	1	0
168.46048151836476	0.7992229999999836	2	49	5843.329777	100	0.7235461999998734	1	0
169.25970451836474	0.8000210999998671	2	49	5844.139976	100	0.7345224000000599	1	0
170.0597256183646	0.7986449999998513	2	49	5845.224133	68.75	1.0186577000004036	2	0
170.85837061836446	0.7992884000004778	2	49	5845.874634	87.5	0.8705143000006501	2	0
171.65765901836494	0.7984157000000778	2	49	5846.529731	100	0.7263222000001406	1	0
172.45607471836502	0.8003932000001441	2	49	5847.261868	87.5	0.6600434000001769	1	0
173.25646791836516	0.7983422999996037	2	49	5848.143019	100	0.7408016999997926	1	0
174.05481021836476	0.7993438000003152	2	49	5848.97282	93.75	0.7722598999998809	2	0
174.85415401836508	0.8007557000000816	1	0	0	0	0	0	0
175.65490971836516	0.7994117999996888	2	49	5850.56599	100	0.7653307000000495	1	0
176.45432151836485	0.8006235000002562	2	49	5851.320856	93.75	0.7207847999998194	1	0
177.2549450183651	0.7989555999993172	1	49	5852.15514	100	0.7544454	1	0
178.05390061836442	0.7990800000006857	2	49	5853.113855	81.25	0.9142047000004823	2	0
178.8529806183651	0.8002406999994491	2	49	5853.748365	100	0.7496350999999777	1	0
179.65322131836456	0.8007827000001271	2	49	5854.624164	87.5	0.8251928	2	0
180.45400401836469	0.7982508	2	49	5855.379276	93.75	0.7795227	2	0
181.25225481836515	0.8010994999995091	2	49	5856.240362	87.5	0.8423573000000033	2	0
182.05335431836465	0.8007439000002705	2	49	5857.17287	68.75	0.9737661999997727	2	0
182.85409821836492	0.8013402999995378	2	49	5857.789183	93.75	0.7893357000002652	2	0
183.65543851836446	0.7975503000006938	2	49	5858.710277	81.25	0.9090886000003593	2	0
184.45298881836516	0.7958330000001297	2	49	5859.616297	62.5	1.0175583000000188	2	0
185.2488218183653	0.7959730999991734	2	49	5860.340402	75	0.9458308999992369	2	0
186.04479491836446	0.8004100000007384	2	49	5861.353675	50	1.1631309000003967	2	0
186.8452049183652	0.7989531999992323	2	0	0	0	0	0	0
187.64415811836443	0.8003922000007151	2	49	5862.456272	87.5	0.6663646000006338	1	0
188.44455031836515	0.7997433000000456	2	49	5863.292378	93.75	0.7020779999993465	1	0
189.2442936183652	0.8002993	2	49	5864.194385	93.75	0.8043423999997685	2	0
190.0445929183652	0.7990589999999429	2	49	5864.832295	87.5	0.6419525000001158	1	0
190.84365191836514	0.7997913999997763	2	49	5865.8192	87.5	0.8297990000000937	2	0
191.64344331836492	0.8000390999995943	2	49	5866.569599	93.75	0.7804063000003225	2	0
192.4434824183645	0.7995322000006126	2	49	5867.296629	93.75	0.7073974000004455	1	0
193.24301461836512	0.7980287000000317	2	49	5868.154187	100	0.7654229999998279	1	0
194.04104331836515	0.8005577999992965	2	49	5868.888581	93.75	0.7017882	1	0
194.84160111836445	0.7983584000003248	2	49	5869.699936	93.75	0.7125859	1	0
195.63995951836478	0.7990928999997777	2	49	5870.638371	87.5	0.8526625	2	0
196.43905241836455	0.7999884000000748	2	49	5871.464394	81.25	0.8795919000003778	2	0
197.23904081836463	0.8005044999999882	1	0	0	0	0	0	0
198.03954531836462	0.7990300000001298	2	49	5872.990397	93.75	0.8051021999999648	2	0
198.83857531836475	0.7994552999998632	2	49	5873.961828	68.75	0.9775036999999429	2	0
199.6380306183646	0.7990797000002203	1	49	5874.472894	93.75	0.6891143000002558	1	0
200.43711031836483	0.7996228000001793	2	49	5875.259534	93.75	0.6766739000004236	1	0
201.2367331	0.8000596000001678	2	49	5876.085692	93.75	0.7032091000000946	1	0
202.03679271836518	0.7997717999996894	2	49	5877.108741	75	0.9261987999998382	2	0
202.83656451836487	0.7995142	2	49	5877.90167	81.25	0.9193561000001864	2	0
203.63607871836484	0.7998187000002872	2	49	5878.580693	93.75	0.7988646000003428	2	0
204.43589741836513	0.8012127000001783	2	49	5879.199719	81.25	0.6180723	1	0
205.2371101183653	0.7979958999994778	2	49	5880.196105	93.75	0.8132456999992428	2	0
206.0351060183648	0.8005137000000104	2	49	5880.969121	93.75	0.7882654	2	0
206.8356197183648	0.8001837000001615	2	49	5881.89006	81.25	0.9086912000002485	2	0
207.63580341836496	0.7988617999999406	2	49	5882.564128	93.75	0.7825751999998829	2	0
208.4346652183649	0.7988617000000886	2	49	5883.263044	93.75	0.6826296999997794	1	0
209.2335269	0.8013079000002108	2	49	5884.10887	100	0.7295939999994516	1	0
210.0348348183652	0.8010515999994823	2	49	5884.84876	87.5	0.6681759	1	0
210.83588641836468	0.7978548999999475	2	49	5886.009239	62.5	1.0276031000003059	2	0
211.63374131836463	0.7994310000003679	1	49	5886.454136	93.75	0.6746451	1	0
212.4331723	0.8004327999997258	2	49	5887.388162	93.75	0.8092403999999078	2	0
213.23360511836472	0.7995144000005894	2	49	5888.484094	56.25	1.1047398999999132	2	0
214.0331195183653	0.8000856999997268	2	49	5889.307975	50	1.1291059999994104	2	0
214.83320521836504	0.8001659000001382	2	0	0	0	0	0	0
215.63337111836518	0.7987016999995831	2	49	5890.479109	93.75	0.6999882	1	0
216.43207281836476	0.799485	2	49	5891.33308	100	0.7552573000002667	1	0
217.23155781836522	0.7988245999995343	2	49	5892.210158	87.5	0.8328507999995054	2	0
218.03038241836475	0.7999399999998786	2	49	5893.059992	81.25	0.8838599999999133	2	0
218.83032241836463	0.8001936000000569	2	49	5893.901103	75	0.9250315999997838	2	0
219.6305160183647	0.7978385000005801	2	49	5894.768735	68.75	0.9924699000002875	2	0
220.42835451836527	0.7996930999997858	2	49	5895.479251	81.25	0.9051470999993398	2	0
221.22804761836505	0.7989529999995284	2	49	5896.326128	75	0.9523309999995035	2	0
222.02700061836458	0.7989390000002459	2	49	5897.144221	68.75	0.9714706000004298	2	0
222.82593961836483	0.7978753999996115	1	0	0	0	0	0	0
223.62381501836444	0.7993211000002702	2	49	5898.58103	93.75	0.8114659000002575	2	0
224.4231361183647	0.7991429000003336	1	0	0	0	0	0	0
225.22227901836504	0.8008527000001777	1	0	0	0	0	0	0
226.02313171836522	0.7991001000000324	2	49	5901.016694	87.5	0.8478132000000187	2	0
226.82223181836525	0.7997381999994104	1	0	0	0	0	0	0
227.62197001836466	0.8000260999997408	2	49	5902.671554	81.25	0.9038347	2	0
228.4219961183644	0.7984831000003396	1	0	0	0	0	0	0
229.22047921836474	0.8003244999999879	2	49	5904.131378	100	0.7651490999996895	1	0
230.02080371836473	0.7992500000000291	2	49	5905.046551	81.25	0.8799979000004896	2	0
230.82005371836476	0.7984044	2	49	5905.782515	93.75	0.8167119999998249	2	0
231.6184581183652	0.8003501999992295	2	49	5906.612997	87.5	0.8487891999993735	2	0
232.41880831836443	0.7995970000001762	2	49	5907.46468	81.25	0.9001222000006237	2	0
233.2184053183646	0.8002704999998969	2	49	5908.214666	87.5	0.8505107999999382	2	0
234.0186758183645	0.7991174000007959	2	49	5909.116737	75	0.9523121000001993	2	0
234.8177932183653	0.7985301999997318	2	49	5909.625055	87.5	0.6615123999999923	1	0
235.61632341836503	0.7999202000000878	2	49	5910.445724	93.75	0.6836511999999857	1	0
236.41624361836512	0.7985506999993959	2	49	5911.351632	93.75	0.7896387000000686	2	0
237.2147943183645	0.7995743999999831	2	49	5912.151902	93.75	0.7913580000004004	2	0
238.0143687183645	0.7976336000001538	2	49	5912.900767	100	0.7406488000005993	1	0
238.81200231836465	0.7979730000006384	2	49	5913.737678	93.75	0.7799261000000115	2	0
239.6099753183653	0.8000356	1	49	5914.348738	81.25	0.5930132999992566	1	0
240.4100109183646	0.7992039999999179	2	49	5915.484685	75	0.9289248000004591	2	0
241.20921491836452	0.7996348000006037	2	49	5916.153227	93.75	0.7982630000005884	2	0
242.00884971836513	0.7985629999993762	1	0	0	0	0	0	0
242.8074127183645	0.7994868000005226	2	49	5917.757819	93.75	0.8046569000007366	2	0
243.60689951836503	0.7997676999993928	2	49	5918.456906	93.75	0.7042572000000291	1	0
244.40666721836442	0.7984857000001284	2	49	5919.417184	87.5	0.8647670000000289	2	0
245.20515291836455	0.7996041000005789	2	49	5920.095106	100	0.7442039000006844	1	0
246.00475701836513	0.7997064000001046	1	49	5920.955986	93.75	0.8054793999999674	2	0
246.80446341836523	0.8000648999995974	2	49	5921.830169	81.25	0.8799560999996174	2	0
247.60452831836483	0.7994418999996924	1	0	0	0	0	0	0
248.40397021836452	0.7999481000006199	2	49	5923.615869	62.5	1.066149199999927	2	0
249.20391831836514	0.7990868999995655	2	49	5924.192283	87.5	0.8426151999992726	2	0
250.0030052183647	0.7984705	2	49	5925.031086	81.25	0.8823318000004292	2	0
250.8014757183646	0.7989248000003499	2	49	5925.68225	100	0.7350245000006908	1	0
251.60040051836495	0.7985603999995874	2	49	5926.742414	68.75	0.9962642999998934	2	0
252.39896091836454	0.7992231	2	49	5927.580531	62.5	1.0358210000003965	2	0
253.19818401836528	0.7978658	2	49	5928.142065	93.75	0.7981313999998747	2	0
253.99604981836455	0.7990170000002763	2	49	5928.953835	93.75	0.8120355999999447	2	0
254.79506681836483	0.7994889999999941	2	49	5929.687483	100	0.7466665	1	0
255.59455581836482	0.7999615999997332	1	0	0	0	0	0	0
256.39451741836456	0.7985705999999482	2	49	5931.291276	100	0.7510091	1	0
257.1930880183645	0.7978181	2	49	5932.063082	100	0.7242442000006122	1	0
257.9909061183653	0.7987859999993816	2	49	5932.964364	87.5	0.8277081999995062	2	0
258.78969211836466	0.7990482000004704	2	49	5933.76712	87.5	0.8316783000000214	2	0
259.5887403183651	0.7990176	2	49	5934.633317	81.25	0.8988267999993695	2	0
260.3877579183645	0.7998358000004373	2	49	5935.429851	81.25	0.8963438000000679	2	0
261.18759371836495	0.7989646999994875	2	49	5936.085501	100	0.7521577999996225	1	0
261.98655841836444	0.7997761000005994	1	0	0	0	0	0	0
262.78633451836504	0.7994394999996075	2	49	5937.97537	62.5	1.0432865000002494	2	0
263.58577401836465	0.7986773000002358	2	49	5938.677642	75	0.9461188000004768	2	0
264.3844513183649	0.7991449000001012	2	49	5939.51485	68.75	0.9846496999998635	2	0
265.1835962	0.7984250999998039	2	49	5940.080518	100	0.7511726000002454	1	0
265.9820213183648	0.7987842000002274	2	49	5940.876426	100	0.7486552000000302	1	0
266.7808055	0.7991947000000437	2	49	5941.597482	87.5	0.6709271999998236	1	0
267.58000021836506	0.7984083000001192	2	49	5942.471058	100	0.7453083999998853	1	0
268.3784085183652	0.7985191	2	49	5943.331612	93.75	0.8074536999993143	2	0
269.17692761836497	0.8004768999999214	2	49	5944.099734	93.75	0.7770568999994794	2	0
269.9774045183649	0.7983260999999402	2	49	5944.866985	100	0.7438307000002169	1	0
270.77573061836483	0.8002292999999554	2	49	5945.694689	100	0.7732089999999516	1	0
271.5759599183648	0.7999436999998579	2	49	5946.517944	93.75	0.7962348	2	0
272.37590361836465	0.7999991000006048	2	49	5947.314747	93.75	0.7930941000004168	2	0
273.17590271836525	0.7990955999994185	2	49	5948.036714	93.75	0.7150618999994549	1	0
273.97499831836467	0.7990489000003436	2	49	5948.718801	81.25	0.5980534999998781	1	0
274.7740472	0.7990426999995179	2	49	5949.785678	87.5	0.8658814000000348	2	0
275.57308991836453	0.7977826000005734	2	49	5950.451035	100	0.7321961000006922	1	0
276.3708725183651	0.8001682999993136	2	49	5951.229515	93.75	0.7128935000000638	1	0
277.1710408183644	0.8008221000000049	2	49	5952.038284	93.75	0.7214939000004961	1	0
277.9718629183644	0.7980125000003682	2	49	5952.928435	93.75	0.8108228000000963	2	0
278.7698754183648	0.8004536999997072	2	49	5953.710172	93.75	0.7945466999999553	2	0
279.5703291183645	0.8010587000007945	2	49	5954.557306	87.5	0.8412278000005244	2	0
280.3713878183653	0.798716	2	49	5955.347014	87.5	0.8298767999995107	2	0
281.1701038183646	0.7989707000006092	1	0	0	0	0	0	0
281.96907451836523	0.7994396999993114	2	49	5956.989246	81.25	0.8744223999992755	2	0
282.76851421836454	0.7997078000007605	2	49	5957.814844	81.25	0.9005804000007629	2	0
283.5682220183653	0.7992193000000043	2	49	5958.494869	93.75	0.7808975999996619	2	0
284.3674413183653	0.7992863999998008	2	49	5959.318958	93.75	0.8057671999995364	2	0
285.1667277183651	0.8005499999999302	2	49	5960.260298	75	0.9478208999998969	2	0
285.96727771836504	0.7991057999997793	2	49	5961.017917	81.25	0.9048899999997957	2	0
286.7663835183648	0.7994787999996333	2	49	5961.629226	93.75	0.7170935000003738	1	0
287.56586231836445	0.8008899	2	49	5962.554392	87.5	0.8427805000001172	2	0
288.36675221836504	0.8000400000000809	2	49	5963.320342	93.75	0.8078403999998045	2	0
289.1667922183651	0.7987377999997989	2	49	5964.208496	81.25	0.8959540999994715	2	0
289.9655300183649	0.7984244999997827	2	49	5964.830118	93.75	0.7188388	1	0
290.7639545183647	0.7988784999997733	2	49	5965.780427	81.25	0.8707233000004635	2	0
291.5628330183645	0.7981542000006812	2	49	5966.570385	87.5	0.8618029000008391	2	0
292.36098721836515	0.7985351999996055	1	0	0	0	0	0	0
293.15952241836476	0.8009234999999535	2	49	5968.156431	87.5	0.8511591	2	0
293.9604459183647	0.8004570000002786	2	49	5969.096457	68.75	0.9902619000004051	2	0
294.7609029	0.7987523000001602	2	49	5969.688448	93.75	0.7817955999998958	2	0
295.55965521836515	0.7993042	2	49	5970.577439	81.25	0.8720343999993929	2	0
296.3589594	0.8015956999997798	2	49	5971.406572	81.25	0.9018631999997524	2	0
297.16055511836475	0.8009491000002527	1	0	0	0	0	0	0
297.9615042	0.7991464999995515	2	49	5973.007364	81.25	0.9001099999995859	2	0
298.76065071836456	0.7993126000001212	2	49	5973.644677	100	0.7382766999999149	1	0
299.5599633183647	0.8010912999998254	2	49	5974.562503	87.5	0.8567905999998402	2	0
300.3610546183645	0.7999312000001737	2	49	5975.300521	93.75	0.7937174000007872	2	0
301.1609858183647	0.7986356000001251	2	49	5976.140672	87.5	0.8339368000006289	2	0
301.9596214183648	0.8003512000004775	2	49	5976.892663	93.75	0.7872919000001275	2	0
302.7599726183653	0.7993614999995771	2	49	5977.756753	87.5	0.8510311000000002	2	0
303.55933411836486	0.7978401000000304	2	49	5978.503795	93.75	0.7987117000002399	2	0
304.3571742183649	0.7989983999996184	2	49	5979.382585	81.25	0.8796613000004072	2	0
305.1561726183645	0.7998815000000832	1	0	0	0	0	0	0
305.9560541183646	0.8007393000007141	1	0	0	0	0	0	0
306.7567934183653	0.7983764999999039	1	0	0	0	0	0	0
307.5551699183652	0.7983000999993237	2	49	5982.533801	87.5	0.8328818999998475	2	0
308.35347001836453	0.8005221000003075	2	49	5983.520676	68.75	1.0214566000004197	2	0
309.15399211836484	0.8000972	2	49	5984.13169	87.5	0.8319481999997151	2	0
309.9540893183648	0.7987949	2	49	5984.924654	87.5	0.8248152	2	0
310.75288421836467	0.8009465000004639	2	49	5985.727683	87.5	0.8290497	2	0
311.55383071836513	0.7993879999994533	2	49	5986.470741	100	0.7711609999996654	1	0
312.3532187183646	0.7999354000003223	2	49	5987.288053	93.75	0.7890853	2	0
313.1531541183649	0.7987651000003098	2	49	5988.12	87.5	0.8210962000002837	2	0
313.9519192183652	0.8013478999992003	2	49	5988.911587	93.75	0.8139181999995344	2	0
314.7532671183644	0.7994596000007732	2	49	5989.618674	93.75	0.7196579000001293	1	0
315.5527267183652	0.7984196	2	49	5990.564983	87.5	0.8665068000000247	2	0
316.35114631836495	0.8001119000000472	2	49	5991.495415	68.75	0.9985194000000774	2	0
317.1512582	0.7998993000001065	2	49	5992.072171	93.75	0.7751632999998037	2	0
317.9511575183651	0.7993593999999575	2	49	5992.862811	100	0.7659039000000121	1	0
318.75051691836507	0.7995233999999982	2	49	5993.659386	100	0.7631199	1	0
319.55004031836506	0.7988427000000229	2	49	5994.504125	93.75	0.8083349999997154	2	0
320.3488830183651	0.7994137999994564	2	49	5995.264146	100	0.7695131000000401	1	0
321.14829681836454	0.7997332000004462	1	49	5996.042449	100	0.7484029000006558	1	0
321.94803	0.799168	2	49	5996.734379	87.5	0.6405996000003142	1	0
322.74719801836454	0.7993042000007335	2	49	5997.755695	87.5	0.8627473000005921	2	0
323.5465022183653	0.7998224	2	49	5998.42536	100	0.7331085999994684	1	0
324.34632461836463	0.7993909	2	49	5999.286419	93.75	0.7943445999999312	2	0
325.14571551836525	0.7992478999995001	2	49	6000.062835	100	0.7713695999991614	1	0
325.94496341836475	0.7997701000003872	2	49	6000.889399	93.75	0.7986860000000888	2	0
326.74473351836514	0.7997264999994513	2	49	6001.711213	87.5	0.8207300999993095	2	0
327.5444600183646	0.7992586999998821	2	49	6002.601208	81.25	0.9109985000004599	2	0
328.34371871836447	0.7980496	2	49	6003.221275	100	0.7318070999999691	1	0
329.1417683183645	0.7985219000001962	2	49	6004.106335	93.75	0.8188171000001603	2	0
329.9402902183647	0.7994241000005786	2	49	6004.994465	81.25	0.9084248999997726	2	0
330.73971431836526	0.7993838999991567	2	49	6005.674381	93.75	0.7889171999995597	2	0
331.5390982183644	0.7991250000004584	2	49	6006.55018	87.5	0.8653322000000117	2	0
332.3382232183649	0.7993907000000036	1	0	0	0	0	0	0
333.1376139183649	0.8000003999995897	2	49	6008.167361	81.25	0.8839977999996336	2	0
333.93761431836447	0.7990185000007841	2	49	6009.045605	75	0.9622411000000284	2	0
334.73663281836525	0.7991390999995929	2	49	6009.646566	100	0.7641839999996591	1	0
335.53577191836484	0.7982738999999128	2	49	6010.476926	93.75	0.7954042999999729	2	0
336.33404581836476	0.7994614999997793	2	49	6011.283569	93.75	0.8037738000002719	2	0
337.13350731836454	0.7987812000001213	2	49	6012.19115	81.25	0.9118930000004184	2	0
337.93228851836466	0.7998422000000573	2	49	6012.939678	87.5	0.8616400000000795	2	0
338.7321307183647	0.7986009000005652	1	0	0	0	0	0	0
339.5307316183653	0.7993673999999373	2	49	6014.566057	81.25	0.8895757000000231	2	0
340.3300990183652	0.8005052999997133	2	49	6015.238831	100	0.7629821000000447	1	0
341.13060431836493	0.7989470000002257	2	49	6016.325708	62.5	1.0493544000000838	2	0
341.92955131836516	0.7995599999994738	2	49	6016.860716	93.75	0.7854153999996925	2	0
342.72911131836463	0.8001140000005762	1	0	0	0	0	0	0
343.5292253183652	0.7988325999995141	2	49	6018.394168	93.75	0.7191933999993125	1	0
344.3280579183647	0.7989161	2	49	6019.151759	93.75	0.6779518000003009	1	0
345.1269740183652	0.7997753999998167	2	49	6020.090615	93.75	0.8178915999997116	2	0
345.92674941836503	0.8001764000000549	1	0	0	0	0	0	0
346.7269258183651	0.7975830999994287	2	49	6021.72653	87.5	0.8538546999998289	2	0
347.5245089183645	0.7999957000001814	2	49	6022.46221	93.75	0.7919516	2	0
348.3245046183647	0.8009475999997449	2	49	6023.352101	81.25	0.8818467999999484	2	0
349.12545221836444	0.7989307000007102	2	49	6024.305961	62.5	1.0347595000002912	2	0
349.92438291836515	0.7988910999993095	2	49	6024.952157	81.25	0.882025	2	0
350.72327401836446	0.7994077000003017	2	49	6025.666904	93.75	0.7978802000006908	2	0
351.52268171836477	0.7993326000005254	2	49	6026.509233	87.5	0.8408018000000084	2	0
352.3220143183653	0.7992078999996011	2	49	6027.33945	87.5	0.8716865999995207	2	0
353.1212222183649	0.8000150999996549	2	49	6028.079543	93.75	0.8125718000001143	2	0
353.92123731836455	0.7981523000007655	2	49	6029.054364	68.75	0.9873776	2	0
354.7193896183653	0.7999833999992916	2	49	6029.657509	93.75	0.7923699999992095	2	0
355.5193730183646	0.7992862000000969	1	0	0	0	0	0	0
356.3186592183647	0.7991021	2	49	6031.269309	93.75	0.8049005	2	0
357.1177613183645	0.8000365	2	49	6032.089227	87.5	0.8257163000007495	2	0
357.9177978183652	0.7997962999997981	2	49	6032.956499	81.25	0.8929518999993888	2	0
358.7175941	0.7982437999999092	2	49	6033.531165	87.5	0.6678217999997287	1	0
359.5158379183649	0.7983099000002767	2	49	6034.37347	93.75	0.7118823999999222	1	0
360.3141478183652	0.8007561999993413	2	49	6035.214451	100	0.7545540999999503	1	0
361.11490401836454	0.8006212999998752	2	49	6036.29558	62.5	1.0349267999999938	2	0
361.9155253183644	0.7989346000003934	2	49	6036.922906	87.5	0.8616314000000784	2	0
362.7144599183648	0.7985466000000088	1	0	0	0	0	0	0
363.5130065183648	0.7987087000001338	2	49	6038.400559	100	0.7418028000001868	1	0
364.31171521836495	0.8000332999999955	2	49	6039.297612	87.5	0.8401476999997612	2	0
365.11174851836495	0.7989776	2	49	6040.286667	62.5	1.029168999999456	2	0
365.91072611836444	0.7998165000008157	2	49	6041.110429	62.5	1.0539534000008643	2	0
366.71054261836525	0.7994769999995697	2	49	6041.742457	81.25	0.8861644999997225	2	0
367.5100196183648	0.7998435999998037	2	49	6042.563675	81.25	0.9079063999997743	2	0
368.3098632183646	0.7999233000000459	2	49	6043.18546	100	0.7298473	1	0
369.1097865183647	0.7997329999998328	2	49	6043.955654	93.75	0.7001181	1	0
369.9095195183645	0.7998117000006459	2	49	6044.840344	93.75	0.7850747	2	0
370.70933121836515	0.7993109999997614	2	49	6045.625602	100	0.7705215999994834	1	0
371.5086422183649	0.8014554999999746	1	0	0	0	0	0	0
372.3100977183649	0.7986889	2	49	6047.25303	93.75	0.7971827000001213	2	0
373.10878661836523	0.8001420000000508	1	0	0	0	0	0	0
373.9089286183653	0.7981809999992038	2	49	6048.966935	81.25	0.9122567999993407	2	0
374.7071096183645	0.7992015	2	49	6049.690516	87.5	0.8376566000006278	2	0
375.50631111836447	0.7993736	2	49	6050.386736	100	0.7346759000001839	1	0
376.3056847183652	0.7992980999997599	2	49	6051.307696	87.5	0.8562613999993118	2	0
377.1049828	0.8005027999997765	2	49	6052.00763	100	0.7568974	1	0
377.90548561836476	0.7997855000003256	2	49	6052.726833	93.75	0.6755977000002531	1	0
378.7052711183651	0.7991990000000442	2	49	6053.606629	100	0.7556084999996528	1	0
379.50447011836513	0.8009484	2	49	6054.669047	68.75	1.018827500000043	2	0
380.3054185183646	0.8018096000005244	2	49	6055.191066	100	0.7398984000001292	1	0
381.10722811836513	0.7996100999998816	2	49	6056.121776	87.5	0.8687988000001496	2	0
381.9068382	0.7986136999998052	1	0	0	0	0	0	0
382.7054519183648	0.7999276000000464	2	49	6057.716159	87.5	0.8649572	2	0
383.50537951836486	0.8004045999996379	2	49	6058.340905	93.75	0.6897762999997212	1	0
384.3057841183645	0.8004485999999815	2	49	6059.2504	93.75	0.7988660000000891	2	0
385.1062327183645	0.7983874000001379	2	49	6059.987144	100	0.7351619999999457	1	0
385.9046201183646	0.8007330000000366	2	49	6060.777036	100	0.7266666000004989	1	0
386.70535311836466	0.7999012000000221	2	49	6061.604122	100	0.7530197000005501	1	0
387.5052543183647	0.8018499999998312	2	49	6062.424038	100	0.7730344999999943	1	0
388.3071043183645	0.7978363000001991	2	49	6063.398975	75	0.9461209000000963	2	0
389.1049406183647	0.7978307000003042	2	49	6064.078057	87.5	0.8273669999998674	2	0
389.9027713	0.8006512000001749	2	49	6064.854473	93.75	0.8059524999998757	2	0
390.7034225183652	0.7989809000000605	2	49	6065.725166	81.25	0.8759936999995261	2	0
391.50240341836525	0.7985487999994803	2	49	6066.467282	93.75	0.8191290999993726	2	0
392.3009522183647	0.7982094999997571	2	49	6067.34532	81.25	0.8986181999998735	2	0
393.0991617183645	0.7987904999999955	2	49	6068.144147	81.25	0.8992363000006662	2	0
393.8979522183645	0.7995060000002923	2	49	6069.063233	68.75	1.0195311000006768	2	0
394.6974582183648	0.7983950999996523	2	49	6069.818215	68.75	0.9750070000000051	2	0
395.4958533183644	0.7987119000008533	2	49	6070.427584	93.75	0.7859812000006059	2	0
396.2945652183653	0.7999869999994189	2	49	6071.281774	87.5	0.8414594999994733	2	0
397.0945522183647	0.7984329000000798	2	49	6072.077714	87.5	0.8374124000001757	2	0
397.8929851183648	0.7986333999997441	2	49	6072.887348	87.5	0.8486132999996698	2	0
398.6916185183645	0.8001419000001988	1	0	0	0	0	0	0
399.4917604183647	0.7988253000003169	2	49	6074.455563	93.75	0.8180535000001328	2	0
400.29058571836504	0.7997834999996485	2	49	6075.350554	81.25	0.9142185999999128	2	0
401.0903692183647	0.7994859	1	0	0	0	0	0	0
401.8898551183647	0.7989796000001661	2	49	6076.837621	93.75	0.8020163999999568	2	0
402.6888347183649	0.8011593999999604	2	49	6077.653397	93.75	0.8188131999995676	2	0
403.48999411836485	0.7989522999996552	2	49	6078.413516	93.75	0.7777726000003895	2	0
404.2889464183645	0.7998760000000402	2	49	6079.353453	81.25	0.9187572999999247	2	0
405.08882241836454	0.8007631000000401	2	49	6080.148629	81.25	0.9140568000002531	2	0
405.8895855183646	0.7993991000003007	2	49	6080.999798	75	0.9644630000002508	2	0
406.6889846183649	0.7997003000000404	2	49	6081.775969	75	0.9412350000002334	2	0
407.4886849183649	0.7980754000000161	2	49	6082.416696	93.75	0.7822616000003109	2	0
408.28676031836494	0.7998172999996314	2	49	6083.368882	75	0.9363723999995273	2	0
409.0865776183646	0.8007390000002488	2	49	6084.011732	93.75	0.7794045000000551	2	0
409.8873166183648	0.7984533999997439	2	49	6084.764947	100	0.7318811000004644	1	0
410.68577001836456	0.7993327000003774	1	0	0	0	0	0	0
411.48510271836494	0.8004357999998319	2	49	6086.336926	93.75	0.7060733999996955	1	0
412.2855385183648	0.7990350000000035	2	49	6087.148598	93.75	0.7173101999997016	1	0
413.0845735183648	0.7989948000004006	2	49	6087.965177	100	0.7348535999999513	1	0
413.8835683183652	0.7980397000001176	2	49	6088.602783	81.25	0.5734652000001006	1	0
414.6816080183653	0.7995343999991746	2	49	6089.36989	75	0.5425324999996519	1	0
415.48114241836447	0.7991527000003771	2	49	6090.132028	68.75	0.5051357000002099	1	0
416.28029511836485	0.7992358999999851	2	49	6091.032626	81.25	0.6065817999997307	1	0
417.07953101836483	0.8007795000003171	2	49	6091.895255	87.5	0.6699747	1	0
417.88031051836515	0.7994448999997985	2	49	6092.827981	93.75	0.8019205999999031	2	0
418.67975541836495	0.7985418	2	49	6093.685886	87.5	0.8603812999999718	2	0
419.4782972183648	0.7995720999997502	2	49	6094.622056	68.75	0.9980095999999321	2	0
420.27786931836454	0.7985296000006201	2	49	6095.555206	50	1.1315872000004674	2	0
421.07639891836516	0.7989923999994062	1	49	6096.12627	81.25	0.9041216999994504	2	0
421.87539131836456	0.7986242000006314	2	49	6096.77544	100	0.7542991000000256	1	0
422.6740155183652	0.7990829000000303	2	49	6097.534883	93.75	0.7151182999996308	1	0
423.4730984183652	0.8001494000000093	2	49	6098.270003	87.5	0.6511547000000064	1	0
424.27324781836523	0.8002991999992446	2	49	6099.206281	93.75	0.7872834999998304	2	0
425.0735470183645	0.8004563000004055	2	49	6100.078293	87.5	0.8589965999999549	2	0
425.8740033183649	0.8006652000003669	2	49	6100.90107	81.25	0.8813167999996949	2	0
426.67466851836525	0.7981786000000284	1	0	0	0	0	0	0
427.4728471183653	0.7999938999992082	2	49	6102.495417	81.25	0.8768200999993496	2	0
428.2728410183645	0.8000755000002755	1	49	6103.260614	87.5	0.8420240000004924	2	0
429.07291651836476	0.8007735999999568	2	49	6103.989644	100	0.7709780000004685	1	0
429.8736901183647	0.7998972000004869	2	49	6104.719481	93.75	0.7000417999997808	1	0
430.6735873183652	0.8002294999996593	2	49	6105.414408	81.25	0.5950708000000304	1	0
431.47381681836487	0.7995877	2	49	6106.231648	81.25	0.6120816000002378	1	0
432.27340451836517	0.8000071999995271	1	0	0	0	0	0	0
433.0734117183647	0.7990042000001267	2	49	6108.002536	93.75	0.7833747000004223	2	0
433.8724159183648	0.8000867999999173	2	49	6109.005596	68.75	0.9874304000004486	2	0
434.67250271836474	0.7998390000002473	2	49	6109.632602	93.75	0.8143501000004107	2	0
435.4723417	0.8020930000002409	1	0	0	0	0	0	0
436.2744347183652	0.7994890999998461	2	49	6111.277664	87.5	0.8574794999994992	2	0
437.0739238183651	0.7986304	2	49	6112.171457	75	0.9517837	2	0
437.8725542183647	0.7992795000000115	2	49	6112.804377	93.75	0.786073	2	0
438.6718337183647	0.7999721000005593	1	0	0	0	0	0	0
439.4718058183653	0.8000843999998324	2	49	6114.318608	93.75	0.7010527	1	0
440.2718902183651	0.7994066999999632	2	49	6115.379402	75	0.9617621999996118	2	0
441.0712969183651	0.7992829999993774	1	0	0	0	0	0	0
441.87057991836446	0.8004293	1	0	0	0	0	0	0
442.6710092183648	0.7983735999996497	2	49	6117.571472	100	0.7547136000002865	1	0
443.46938281836447	0.8006563	2	49	6118.338637	100	0.7235048	1	0
444.2700391183653	0.7999942999995255	2	49	6119.184863	100	0.7690745999998398	1	0
445.0700334183648	0.7997871999996278	2	49	6120.08446	87.5	0.8686776000004102	2	0
445.86982061836443	0.7995734000005541	1	0	0	0	0	0	0
446.669394	0.800797	2	49	6121.672629	87.5	0.8574859000000288	2	0
447.47019101836486	0.8000355000003765	2	49	6122.427285	93.75	0.8113443000002007	2	0
448.27022651836523	0.7995081999997637	2	49	6123.428365	68.75	1.0123891999992338	2	0
449.0697347	0.7999491999999009	2	49	6124.019715	93.75	0.8042307999994591	2	0
449.8696839183649	0.8003308	2	49	6124.824003	93.75	0.8085697999995318	2	0
450.67001471836465	0.7998601999997845	1	0	0	0	0	0	0
451.46987491836444	0.7987762000002476	2	49	6126.509741	81.25	0.8941162000000986	2	0
452.2686511183647	0.7982916999999361	2	49	6127.238787	87.5	0.8243866000002527	2	0
453.0669428183646	0.8006304000000455	2	49	6127.980823	100	0.7681307000002562	1	0
453.86757321836467	0.7998224000002665	2	49	6128.813135	93.75	0.7998124000005191	2	0
454.66739561836494	0.7989294999997583	2	49	6129.576989	100	0.7638435999997455	1	0
455.4663251183647	0.7998901000000842	2	49	6130.30025	93.75	0.6881757999999536	1	0
456.2662152183648	0.8008581000003687	2	49	6131.45335	62.5	1.041385700000319	2	0
457.06707331836515	0.8002606000000014	1	49	6131.972381	100	0.7595580999995946	1	0
457.86733391836515	0.8003438999994614	1	49	6132.801253	93.75	0.7881701	2	0
458.6676778183646	0.7994472999998834	2	49	6133.559329	100	0.7459022000002733	1	0
459.4671251183645	0.7992997999999716	2	49	6134.32497	93.75	0.7120950000007724	1	0
460.26642491836446	0.8009054000003744	2	49	6135.201141	93.75	0.7889669000005597	2	0
461.06733031836484	0.8005638000004183	2	49	6135.980061	100	0.7669812000003731	1	0
461.86789411836526	0.8004282	2	49	6136.596493	81.25	0.5828497999991669	1	0
462.6683223183645	0.7996031000002404	2	49	6137.368288	75	0.5542159000005995	1	0
463.46792541836476	0.7989144000002852	2	49	6138.207514	81.25	0.5938391999998203	1	0
464.26683981836504	0.8006149000002551	2	49	6139.211813	93.75	0.7992242	2	0
465.0674547183653	0.8007064999992508	2	49	6139.942223	100	0.7290190999992774	1	0
465.86816121836455	0.8000468999998702	2	49	6140.686783	93.75	0.6728728000007322	1	0
466.6682081183644	0.7999928000008367	2	49	6141.630289	93.75	0.8163312000006044	2	0
467.46820091836526	0.7984729999998308	2	49	6142.712482	56.25	1.098531699999512	2	0
468.2666739183651	0.8005395000000135	2	49	6143.428173	68.75	1.0157491999998456	2	0
469.0672134183651	0.7982753999995111	2	49	6144.140461	75	0.9274976999995488	2	0
469.8654888183646	0.8003079000000071	2	49	6144.751528	100	0.7402892999998585	1	0
470.6657967183646	0.7997679000000062	1	49	6145.524063	93.75	0.7125168000002304	1	0
471.4655646183646	0.7996315999998842	1	0	0	0	0	0	0
472.2651962183645	0.7996608000003107	2	49	6147.308597	81.25	0.8976511999999275	2	0
473.0648570183648	0.7984912000001714	2	49	6148.004776	93.75	0.7941698	2	0
473.8633482	0.7999176	2	49	6148.961657	75	0.9525597000001653	2	0
474.6632658183653	0.7998221999996531	1	0	0	0	0	0	0
475.46308801836494	0.8017895000002682	2	49	6150.45456	87.5	0.8457230000003619	2	0
476.2648775183652	0.7989788999993834	1	0	0	0	0	0	0
477.0638564183646	0.7994697000003725	2	49	6152.059873	87.5	0.8502674999999726	2	0
477.86332611836497	0.7996852999995099	2	49	6152.8239	93.75	0.8148243	2	0
478.6630114183645	0.7989152000000104	2	49	6153.648882	87.5	0.8401208000004772	2	0
479.4619266183645	0.8000442000002295	2	49	6154.370704	100	0.7630275000001348	1	0
480.2619708183647	0.8000492000001032	2	49	6155.507847	56.25	1.1001267000001462	2	0
481.0620200183648	0.7991299000004801	2	49	6156.080719	81.25	0.8729498000002422	2	0
481.8611499183653	0.8006710999998177	2	49	6156.820952	93.75	0.8140521999994235	2	0
482.6618210183651	0.7991085	2	49	6157.673679	87.5	0.8661081999998714	2	0
483.46092951836454	0.8009428000004846	2	49	6158.552023	75	0.9453440000006594	2	0
484.2618723	0.7978846999994857	2	49	6159.372888	75	0.9652662999997119	2	0
485.0597570183645	0.8000710000005711	1	0	0	0	0	0	0
485.8598280183651	0.7986940999999206	1	0	0	0	0	0	0
486.6585221	0.7990558999999848	2	49	6161.591162	93.75	0.7868903999997201	2	0
487.457578	0.7999762999997984	1	0	0	0	0	0	0
488.2575543183648	0.7992340999999215	2	49	6163.166154	100	0.7628504000003886	1	0
489.0567884183647	0.7987437000001592	2	49	6164.243021	62.5	1.0404835999997886	2	0
489.85553211836486	0.8005296000001181	2	49	6164.779196	93.75	0.7779142	2	0
490.6560617	0.7989348000000973	2	49	6165.544989	100	0.7431774999995469	1	0
491.4549965183651	0.7988832999999431	2	49	6166.475266	81.25	0.8745198	2	0
492.2538798	0.7991892000000007	2	49	6167.291374	81.25	0.8917444999997315	2	0
493.053069	0.7991461000001436	2	49	6168.088331	81.25	0.8895120999995925	2	0
493.85221511836517	0.7989527999998245	2	49	6168.696167	93.75	0.6982023000000481	1	0
494.6511679	0.7995654999995168	2	49	6169.451415	87.5	0.6544974999997066	1	0
495.4507334183645	0.7993498000005275	2	49	6170.485471	81.25	0.8889885	2	0
496.25008321836503	0.7997780999994575	2	49	6171.124139	100	0.7283066999998482	1	0
497.0498613183645	0.7978104000003441	2	49	6171.84141	87.5	0.6457989000000453	1	0
497.84767171836484	0.7999421000004077	2	49	6172.994424	68.75	1.0010026999998445	2	0
498.64761381836524	0.7997726999992665	2	49	6173.607001	93.75	0.8136380999994799	2	0
499.4473865183645	n/a	0	49	6174.363395	100	0.7702592000005097	1	0