onset	duration	cue	constant1	timestamp	stimulus_coherence	response_time	response	constant2
20.80300580968276	0.8277134999999589	2	49	976.5625969	50	1.159521400000017	2	0
21.630719309682718	0.8292323000000579	2	49	977.2466299	68.75	1.0158409000000574	2	0
22.459951609682776	0.8296349999999393	1	49	977.8822403	93.75	0.8222190000000182	2	0
23.289586609682715	0.8214247000000796	2	49	978.6707856	100	0.7811293000000887	1	0
24.111011309682794	0.8238776999999118	2	49	979.5247659	93.75	0.8136848999999984	2	0
24.934889009682706	0.8308933000000707	2	49	980.4098989	87.5	0.8749402000000828	2	0
25.765782309682777	0.8311486000000059	1	0	0	0	0	0	0
26.596930909682783	0.8198920999999473	2	49	982.0259103	93.75	0.8289096999999401	2	0
27.41682300968273	0.8219726	1	0	0	0	0	0	0
28.23879560968271	0.8246427000000267	2	49	983.5702298	93.75	0.7313645000000406	1	0
29.063438309682738	0.8172033000000738	2	49	984.571788	81.25	0.9082799999999907	2	0
29.88064160968281	0.8203093999999282	1	0	0	0	0	0	0
30.70095100968274	0.8095761000000721	2	49	986.2095308	81.25	0.9085101000000577	2	0
31.510527109682812	0.8186393999999382	2	49	986.8298373	93.75	0.7192404999999553	1	0
32.32916650968275	0.8279232999999522	1	0	0	0	0	0	0
33.15708981	0.8210500000000138	1	49	988.5050407	100	0.7478812000000516	1	0
33.978139809682716	0.8187999000000445	2	49	989.3930212	93.75	0.8148117000000639	2	0
34.79693970968276	0.8207879999999932	2	49	990.2019112	93.75	0.8049018000000387	2	0
35.617727709682754	0.8189181	2	49	991.1170538	81.25	0.8992564	2	0
36.43664580968277	0.822686	2	49	991.9800233	81.25	0.9433077999999568	2	0
37.25933180968275	0.8215637	2	49	992.7022284	87.5	0.8428268999999773	2	0
38.080895509682705	0.8186087000000271	2	49	993.5380416	87.5	0.8570764000000963	2	0
38.89950420968273	0.8385177000000112	2	49	994.4508658	81.25	0.9512919000000011	2	0
39.73802190968274	0.8210378999999648	2	49	995.3012469	75	0.9631553000000395	2	0
40.55905980968271	0.8198579000001018	1	0	0	0	0	0	0
41.37891770968281	0.8201938999999356	2	49	996.7143312	93.75	0.7353438	1	0
42.199111609682745	0.8191673999999693	2	49	997.5910995	93.75	0.7919182000000546	2	0
43.018279009682715	0.8229491000000735	2	49	998.3651129	100	0.7467642000000296	1	0
43.84122810968279	0.8289919999999711	2	49	999.2203133	100	0.7790155000000141	1	0
44.67022010968276	0.8244902999999795	2	49	1000.053559	100	0.7832687999999735	1	0
45.49471040968274	0.8133333000000675	2	49	1000.909509	93.75	0.8147288000000117	2	0
46.308043709682806	0.8224973000000091	2	49	1001.681788	100	0.7736747999999807	1	0
47.130541009682815	0.8150701999999228	2	49	1002.691687	75	0.9610764999999901	2	0
47.94561120968274	0.8223469000000705	2	49	1003.383343	93.75	0.8376616000000467	2	0
48.76795810968281	0.8267438999999968	2	49	1004.093601	93.75	0.7255735999999615	1	0
49.594702009682806	0.8205394999999953	2	49	1005.036369	93.75	0.8415968999998995	2	0
50.41524151	0.8215257999999039	2	49	1005.971503	75	0.9561914999999317	2	0
51.236767309682705	0.8222147000000177	2	49	1006.773601	81.25	0.9367640000000392	2	0
52.05898200968272	0.8147466	2	49	1007.579356	81.25	0.9203044000000773	2	0
52.87372860968276	0.8184559000000036	2	49	1008.387593	81.25	0.9137948000000051	2	0
53.69218450968276	0.8238308999999617	2	49	1009.237968	81.25	0.9457132999999658	2	0
54.51601540968272	0.8254308000000492	2	49	1010.048733	81.25	0.9326477	2	0
55.34144620968277	0.8204659	2	49	1010.727614	100	0.7860984000000144	1	0
56.16191211	0.8249564000000191	2	49	1011.836027	62.5	1.0740456000000904	2	0
56.98686850968272	0.8194249000000582	2	49	1012.404626	93.75	0.8176875000000337	2	0
57.80629340968278	0.8149337999999489	2	49	1013.509407	56.25	1.1030441999999994	2	0
58.62122720968273	0.8149379000000181	2	49	1014.099781	87.5	0.8784838000000263	2	0
59.43616510968275	0.8213832000000139	2	49	1014.869752	93.75	0.8335174999999708	2	0
60.25754830968276	0.8114205000000538	2	49	1015.811018	75	0.9534000999999535	2	0
61.068968809682815	0.8222163999998884	1	0	0	0	0	0	0
61.89118521	0.8105721000000585	1	0	0	0	0	0	0
62.70175730968276	0.8111648000000287	2	49	1017.975837	87.5	0.6740098000000216	1	0
63.51292210968279	0.8244816999999784	2	49	1018.946171	93.75	0.8331794	2	0
64.33740380968277	0.8125682	2	49	1019.708429	100	0.7709551000000374	1	0
65.14997200968276	0.8301804999999831	1	0	0	0	0	0	0
65.98015250968274	0.8210045000000719	2	49	1021.409212	93.75	0.8289898000000449	2	0
66.80115700968281	0.8207331999999496	2	49	1022.177033	100	0.7758063999999649	1	0
67.62189020968276	0.8240382000000182	2	49	1022.982041	100	0.7600810999999794	1	0
68.44592840968278	0.8331359999999677	2	49	1023.874991	93.75	0.8289927999999236	2	0
69.27906440968275	0.8183299999999463	1	0	0	0	0	0	0
70.09739440968269	0.8155301	2	49	1025.49442	93.75	0.7969557000001259	2	0
70.91292450968285	0.8161932999998953	2	49	1026.179929	87.5	0.6669343999999455	1	0
71.72911780968275	0.8170030000001134	2	49	1027.226262	81.25	0.8970745999999963	2	0
72.54612080968286	0.8213482999999542	2	49	1027.861093	93.75	0.7149021999998695	1	0
73.36746910968282	0.8214665000000423	1	49	1028.723528	100	0.7559896000000208	1	0
74.18893560968286	0.8175133999998252	2	49	1029.496323	93.75	0.7073178999999072	1	0
75.00644900968268	0.8248879000000215	2	49	1030.314869	93.75	0.7083500000001095	1	0
75.83133691	0.817705	2	49	1031.309868	87.5	0.8784614000001056	2	0
76.64904190968286	0.8284854999999425	2	49	1032.08052	93.75	0.831408	2	0
77.47752741	0.8153167999998914	2	49	1032.979321	81.25	0.9017234000000371	2	0
78.29284421	0.8170053999999709	2	49	1033.711392	93.75	0.8184784000000036	2	0
79.10984960968267	0.8118602000001829	2	49	1034.605446	81.25	0.8955262000001767	2	0
79.92170980968285	0.8141591999999491	2	49	1035.422553	81.25	0.9007733999999346	2	0
80.73586901	0.8284581999998863	2	49	1036.20463	87.5	0.8686915999999201	2	0
81.56432720968269	0.8217089	2	49	1037.134443	75	0.9700463000001491	2	0
82.38603610968266	0.8177603999999974	2	49	1037.830764	87.5	0.8446582000001399	2	0
83.20379650968266	0.8135193000000527	2	49	1038.5196	93.75	0.7157340000001113	1	0
84.01731580968271	0.8138112000001456	2	49	1039.618735	68.75	1.0013490999999703	2	0
84.83112700968286	0.8212182999998277	2	49	1040.358566	81.25	0.9273688999999194	2	0
85.65234530968269	0.8120037000001048	2	49	1041.162153	81.25	0.9097377000000506	2	0
86.46434900968279	0.8240758	2	49	1041.876841	93.75	0.8124224000000595	2	0
87.28842480968274	0.8287146000000121	1	0	0	0	0	0	0
88.11713940968275	0.8214918999999554	2	49	1043.583115	87.5	0.8659053999999742	2	0
88.93863131	0.8177895000001172	1	49	1044.266625	93.75	0.7279237000000194	1	0
89.75642080968282	0.8081778999999187	2	49	1045.069736	93.75	0.7132457999998678	1	0
90.56459870968274	0.8184215000001132	2	49	1045.985825	93.75	0.8211564000000635	2	0
91.38302020968285	0.8094209999999293	2	49	1046.85779	87.5	0.8746995999999854	2	0
92.19244120968278	0.8227125000000797	1	0	0	0	0	0	0
93.01515370968286	0.8166620999998031	2	49	1048.329796	93.75	0.7145720999999412	1	0
93.83181580968267	0.8247284	2	49	1049.125734	87.5	0.6938480000001164	1	0
94.65654421	0.8174016999998912	2	49	1050.101938	87.5	0.8453240999999707	2	0
95.47394591	0.8235627999999906	2	49	1050.800995	93.75	0.7269796000000497	1	0
96.29750870968269	0.8194370999999592	2	49	1051.658994	100	0.7614154000000326	1	0
97.11694580968265	0.8153195000002142	2	49	1052.485005	100	0.7679899000002024	1	0
97.93226530968286	0.8162003999998433	2	49	1053.326838	93.75	0.7945027999999184	2	0
98.74846571	0.8304751000000579	2	49	1054.018479	87.5	0.6699433999999655	1	0
99.57894080968276	0.8236592999999175	2	49	1054.910329	93.75	0.7313188999999056	1	0
100.40260010968268	0.8126067000000603	2	49	1055.820221	93.75	0.8175511000001734	2	0
101.21520680968274	0.8177709	2	49	1056.63519	93.75	0.8199134999999842	2	0
102.03297770968265	0.8213222000001679	2	49	1057.340094	93.75	0.7070470000001023	1	0
102.85429990968282	0.8162829999998849	2	49	1058.223482	100	0.7691124	1	0
103.67058290968271	0.8196585000000596	2	49	1059.074022	93.75	0.8033692999999857	2	0
104.49024140968277	0.8215304000000287	2	49	1059.965287	87.5	0.8749754999998913	2	0
105.3117718096828	0.8224995	2	49	1060.703437	93.75	0.7915951	2	0
106.13427130968284	0.8230594999999994	1	0	0	0	0	0	0
106.95733080968284	0.8284662999999455	2	49	1062.285441	93.75	0.7280402999999751	1	0
107.78579710968279	0.8246449000000666	2	49	1063.09746	93.75	0.7115928999999142	1	0
108.61044200968286	0.8264425999998366	2	49	1064.038507	93.75	0.8279955999998947	2	0
109.43688460968269	0.8166796000000431	2	49	1064.706321	87.5	0.6693664000001718	1	0
110.25356420968274	0.8151402999999391	2	49	1065.453551	81.25	0.5999171999999362	1	0
111.06870450968268	0.8142084000000978	2	49	1066.40429	100	0.7355154000001676	1	0
111.88291290968277	0.8214998000000833	2	49	1067.189402	93.75	0.7064192999998795	1	0
112.70441270968286	0.8223092	2	49	1067.967726	87.5	0.6632436	1	0
113.52672190968269	0.8240851000000475	2	49	1068.742968	81.25	0.6161764000000858	1	0
114.35080700968274	0.8187101000000894	1	49	1069.637682	93.75	0.6868054999999913	1	0
115.16951710968283	0.8179144999999153	2	49	1070.459487	93.75	0.6899000999999316	1	0
115.98743160968274	0.8216594000000441	2	49	1071.228603	87.5	0.6411012999999457	1	0
116.80909100968279	0.8141112999999223	2	49	1072.310653	81.25	0.901492	2	0
117.62320230968271	0.8270221	1	0	0	0	0	0	0
118.45022440968273	0.8205476000000544	2	49	1073.720545	87.5	0.6702505000000656	1	0
119.27077200968279	0.8172193999998854	2	49	1074.514694	87.5	0.6438524000000143	1	0
120.08799140968267	0.8156828000001042	2	49	1075.397094	93.75	0.7090329000000111	1	0
120.90367420968278	0.8193619999999555	2	49	1076.427708	81.25	0.9239645	2	0
121.72303620968273	0.8118346000001111	2	49	1077.232943	81.25	0.909837	2	0
122.53487080968284	0.8152738999999656	2	49	1077.952784	93.75	0.8178429999998116	2	0
123.35014470968281	0.8265882000000602	2	49	1078.844959	87.5	0.8947444999998879	2	0
124.17673290968287	0.8197141999999076	2	49	1079.554684	100	0.7778813	1	0
124.99644710968278	0.8114289000000099	2	49	1080.344779	100	0.7482617999999093	1	0
125.80787600968279	0.8213670000000093	2	49	1081.116922	93.75	0.7089763999999832	1	0
126.6292430096828	0.8211036000000149	2	49	1082.243499	68.75	1.0141857999999502	2	0
127.45034660968281	0.8181509999999435	2	49	1082.862044	93.75	0.8116273000000547	2	0
128.26849760968275	0.8272922000001017	2	49	1083.631163	100	0.7625957000000199	1	0
129.09578980968286	0.8189092000000073	2	49	1084.432042	93.75	0.7361824999998134	1	0
129.91469900968286	0.8268167999999605	2	49	1085.401569	87.5	0.8867999999999938	2	0
130.74151580968282	0.8228523000000223	2	49	1086.145157	93.75	0.8035711999998512	2	0
131.56436810968285	0.8138349	1	0	0	0	0	0	0
132.3782030096827	0.8134933999999703	2	49	1087.668009	93.75	0.6897358000001077	1	0
133.19169640968266	0.8147668000001431	2	49	1088.479322	87.5	0.6875557000000754	1	0
134.0064632096828	0.8188781999999719	2	49	1089.277229	87.5	0.6706965	1	0
134.82534140968278	0.8231174	2	49	1090.15731	93.75	0.7318992000000435	1	0
135.64845880968278	0.8228102	2	49	1091.394265	50	1.1457359999999426	2	0
136.47126900968283	0.8159250999999585	2	49	1091.895326	93.75	0.8239874999999302	2	0
137.2871941096828	0.8291790999999193	2	49	1092.683298	100	0.7960336999999527	1	0
138.1163732096827	0.8156143000001066	2	49	1093.515465	93.75	0.799022	2	0
138.9319875096828	0.8184235999999601	2	49	1094.305336	100	0.7732790999998542	1	0
139.75041110968277	0.8236497999998846	2	49	1095.237247	87.5	0.8867658	2	0
140.57406090968266	0.8130832000001647	2	49	1096.177392	68.75	1.0032614000001558	2	0
141.38714410968282	0.8219418999999561	2	49	1096.855695	87.5	0.8684813999998369	2	0
142.20908600968278	0.8187868	2	49	1097.590425	100	0.7812695000000076	1	0
143.02787280968278	0.8297714000000269	2	49	1098.481506	87.5	0.8535638999999264	2	0
143.8576442096828	0.8158211999998457	2	49	1099.182598	93.75	0.7248841999999058	1	0
144.67346540968265	0.8120831	2	49	1100.012822	100	0.7392864000000827	1	0
145.48554850968276	0.8161892000000535	2	49	1100.770622	93.75	0.6850036999999247	1	0
146.3017377096828	0.8146596999999929	2	49	1101.48155	75	0.5797430000000077	1	0
147.1163974096828	0.8261895	2	49	1102.619587	81.25	0.9031201000000237	2	0
147.94258690968286	0.8159153999999944	2	49	1103.488694	75	0.9460368999998536	2	0
148.75850230968285	0.8233472999997957	2	49	1104.104841	100	0.7462691999999151	1	0
149.58184960968265	0.8168195000000651	2	49	1104.974763	100	0.7928441000001385	1	0
150.39866910968271	0.8203375000000506	2	49	1105.832333	93.75	0.8335945999999694	2	0
151.21900660968276	0.8166129999999612	2	49	1106.695995	87.5	0.8769184000000223	2	0
152.03561960968273	0.8139701000000059	2	49	1107.409679	100	0.7739897999999812	1	0
152.84958970968273	0.8204591999999593	2	49	1108.286763	93.75	0.8371035	2	0
153.6700489096827	0.8065805999999611	2	49	1109.015719	100	0.7455999999999676	1	0
154.47662950968265	0.8227282000000287	2	49	1110.194781	56.25	1.1180820000001859	2	0
155.29935770968268	0.8243687000001501	2	49	1110.738023	93.75	0.8385954000000311	2	0
156.12372640968283	0.8253053999999338	1	49	1111.782829	62.5	1.0590331999999307	2	0
156.94903180968277	0.8276731000000837	2	0	0	0	0	0	0
157.77670490968285	0.8169656000000032	2	49	1113.006134	81.25	0.6293596	1	0
158.59367050968285	0.8220096000000012	2	49	1113.837975	87.5	0.6442347	1	0
159.41568010968285	0.8223957000000155	2	49	1114.773407	100	0.7576574999998229	1	0
160.23807580968287	0.8202710999998999	2	49	1115.667297	93.75	0.8291514999998526	2	0
161.05834690968277	0.8237174999999297	1	0	0	0	0	0	0
161.8820644096827	0.8219185	2	49	1117.220328	93.75	0.7381941000001007	1	0
162.70398290968274	0.8118776999999682	2	49	1118.022388	93.75	0.7183357000001251	1	0
163.5158606096827	0.811587	2	49	1118.919697	93.75	0.8037667999999485	2	0
164.32744760968285	0.8118741999999202	1	49	1119.797327	87.5	0.8698092999998153	2	0
165.13932180968277	0.8167292999999063	2	49	1120.575241	93.75	0.8358490000000529	2	0
165.95605110968268	0.8282073	1	0	0	0	0	0	0
166.7842584096827	0.8166389000000436	2	49	1122.002643	81.25	0.6183152999999493	1	0
167.60089730968275	0.8247782999999345	2	49	1123.177703	75	0.9767362000000048	2	0
168.42567560968268	0.8179457000001094	2	49	1123.901084	87.5	0.8753389	2	0
169.2436213096828	0.8147500999998556	1	0	0	0	0	0	0
170.05837140968265	0.818337	2	49	1125.380412	93.75	0.7219708000000082	1	0
170.8767084096828	0.8242952000000514	2	49	1126.296542	93.75	0.8197634999999082	2	0
171.70100360968286	0.8182487999999921	2	49	1127.147587	87.5	0.8465139999998428	2	0
172.51925240968285	0.8207385	1	0	0	0	0	0	0
173.33999090968268	0.8179293000000598	2	49	1128.676431	93.75	0.7363701000001583	1	0
174.15792020968274	0.8178183	2	49	1129.522379	100	0.7643889999999374	1	0
174.97573850968274	0.8131358000000546	2	49	1130.367495	93.75	0.7916863000000376	2	0
175.7888743096828	0.8137609999998858	1	0	0	0	0	0	0
176.60263530968268	0.8210037000001194	2	49	1131.797619	81.25	0.5949138000000858	1	0
177.4236390096828	0.8226204999998572	2	49	1132.628374	81.25	0.6046651999999995	1	0
178.24625950968266	0.8122709000001578	2	49	1133.661924	93.75	0.8155947000000197	2	0
179.05853040968282	0.8138300000000527	1	0	0	0	0	0	0
179.87236040968287	0.8098353999998835	2	49	1135.19506	93.75	0.7226295999998911	1	0
180.68219580968275	0.8205840999999054	2	49	1136.044712	100	0.7624465999999757	1	0
181.50277990968266	0.8188254000001507	2	49	1137.010813	81.25	0.9079630000001089	2	0
182.3216053096828	0.8159319999999752	1	0	0	0	0	0	0
183.13753730968278	0.8215837000000192	2	49	1138.356808	81.25	0.6192006999999649	1	0
183.9591210096828	0.8199259999998958	2	49	1139.287702	93.75	0.7285114999999678	1	0
184.7790470096827	0.8174443000000338	2	49	1140.331297	75	0.9521802000001571	2	0
185.59649130968273	0.8188293999999132	2	49	1141.001825	93.75	0.8052635999999893	2	0
186.41532070968265	0.8152463000001262	2	49	1142.009327	68.75	0.9939363000000867	2	0
187.23056700968277	0.8141763999999512	2	49	1142.664003	93.75	0.8333658999999898	2	0
188.04474340968272	0.8090915000000223	2	49	1143.483943	87.5	0.8391297000000577	2	0
188.85383490968275	0.8196918000001006	2	49	1144.328096	87.5	0.8741917	2	0
189.67352670968285	0.8138190999998187	2	49	1145.122901	87.5	0.8493047999997998	2	0
190.48734580968267	0.8188766000000669	2	49	1145.990974	81.25	0.9035585999999967	2	0
191.30622240968273	0.8150502999999389	2	49	1146.768684	87.5	0.8623919999999998	2	0
192.12127270968267	0.8166763000001538	2	49	1147.832088	56.25	1.1107453000001897	2	0
192.93794900968282	0.8254345999998804	1	0	0	0	0	0	0
193.7633836096827	0.8210533999999825	2	49	1148.790192	56.25	0.4267386000001352	1	0
194.5844370096827	0.8155878	2	49	1149.835626	87.5	0.6511189000000286	1	0
195.4000248096827	0.8141456000000744	2	49	1150.666165	87.5	0.6660699999999906	1	0
196.21417040968277	0.8181265999999141	2	49	1151.574954	100	0.7607138999999279	1	0
197.03229700968268	0.8200172000001658	2	49	1152.432801	93.75	0.8004341	2	0
197.85231420968285	0.8221838	2	49	1153.211447	100	0.7590633999998317	1	0
198.6744980096828	0.8171184999998786	2	49	1154.141683	87.5	0.8671147999998539	2	0
199.49161650968267	0.8293407000001025	2	49	1155.041237	81.25	0.9495510000001559	2	0
200.32095720968277	0.8230267999999796	2	49	1155.89274	75	0.9717126999998982	2	0
201.14398400968275	0.8167347999999492	1	0	0	0	0	0	0
201.9607188096827	0.8291796000000886	2	49	1157.28379	93.75	0.7230013000000781	1	0
202.7898984096828	0.8323199999999815	1	0	0	0	0	0	0
203.62221840968277	0.8167670000000271	2	49	1158.781262	75	0.5589742	1	0
204.4389854096828	0.8226693999999952	2	49	1159.890329	87.5	0.8512739999998757	2	0
205.2616548096828	0.8327236000000084	2	49	1160.624525	100	0.7628007999999227	1	0
206.0943784096828	0.8214246000000003	2	49	1161.510087	93.75	0.8156389000000672	2	0
206.9158030096828	0.8201962000000549	2	49	1162.346712	93.75	0.8308394	2	0
207.73599920968286	0.8148234999998749	2	49	1163.222593	81.25	0.8865236999999979	2	0
208.55082270968273	0.8145409999999629	2	49	1163.995016	87.5	0.8441239999999652	2	0
209.3653637096827	0.8209100000001399	2	49	1164.946731	75	0.9812971999999718	2	0
210.18627370968284	0.8141484000000219	2	49	1165.562816	100	0.7764726999998857	1	0
211.00042210968286	0.8220073999998476	1	0	0	0	0	0	0
211.8224295096827	0.8205772999999681	2	49	1167.130838	93.75	0.7083384000000024	1	0
212.64300680968267	0.8239267000001291	2	49	1168.028462	100	0.7853851	1	0
213.4669335096828	0.8132066000000577	2	49	1168.951881	87.5	0.8848775999999816	2	0
214.28014010968286	0.8200064000000111	2	49	1169.759978	87.5	0.8797678999999334	2	0
215.10014650968287	0.8086338999999043	2	49	1170.562988	87.5	0.8627721999998812	2	0
215.90878040968278	0.8209415999999692	1	49	1171.239939	93.75	0.7310890999999629	1	0
216.72972200968275	0.8183318999999756	2	49	1172.102004	100	0.7722126000001026	1	0
217.54805390968272	0.8160973999999896	2	49	1172.941815	93.75	0.7936913000000914	2	0
218.3641513096827	0.8300305000000208	2	49	1173.76283	100	0.7986085000000003	1	0
219.19418180968273	0.8333067000000938	2	49	1174.744793	81.25	0.9505411000000095	2	0
220.02748850968283	0.8172987999998895	1	0	0	0	0	0	0
220.84478730968272	0.8194183000000521	2	49	1176.144139	93.75	0.6992823000000499	1	0
221.66420560968277	0.8166334000000006	2	49	1177.091886	93.75	0.8276111000000128	2	0
222.48083900968277	0.8134686000000784	2	49	1177.875053	93.75	0.7941439999999602	2	0
223.29430760968285	0.8253625999998349	2	49	1178.715159	93.75	0.8207812999999078	2	0
224.11967020968268	0.8165271000000303	2	49	1179.548161	93.75	0.8284208000000035	2	0
224.9361973096827	0.8120503000000099	2	49	1180.424191	87.5	0.8879236000000219	2	0
225.74824760968272	0.8157979000000068	2	49	1181.21402	87.5	0.8657024000001456	2	0
226.56404550968273	0.8189542000000074	2	49	1182.068202	81.25	0.9040870999999697	2	0
227.38299970968274	0.8198379000000386	2	49	1182.92011	81.25	0.9370406000000457	2	0
228.20283760968277	0.8285946999999396	2	49	1183.709296	87.5	0.9063889999999901	2	0
229.0314323096827	0.8244193	2	49	1184.542336	81.25	0.9108338000000913	2	0
229.85585160968276	0.8217356000000109	2	49	1185.339306	87.5	0.8833847000000787	2	0
230.67758720968277	0.8191117999999733	2	49	1186.230428	75	0.9527705999998943	2	0
231.49669900968274	0.8290728	2	49	1187.041288	81.25	0.9445193999999901	2	0
232.3257718096827	0.8188629000001129	2	49	1187.893977	75	0.9681352000000061	2	0
233.1446347096828	0.8261261999998624	2	49	1188.602342	87.5	0.8576376999999411	2	0
233.97076090968267	0.8059402000001228	2	49	1189.55945	68.75	0.9886198000001514	2	0
234.7767011096828	0.8200331	2	49	1190.324343	81.25	0.9475717000000259	2	0
235.59673420968284	0.8145045999999638	2	49	1191.120733	81.25	0.9239287000000331	2	0
236.4112388096828	0.8250682000000324	2	49	1192.155555	56.25	1.144246399999929	2	0
237.23630700968283	0.8200784999999087	2	49	1192.81138	75	0.9750031999999464	2	0
238.05638550968274	0.8323808000000099	2	49	1193.552403	87.5	0.8959482000000207	2	0
238.88876630968275	0.8122538000000077	2	49	1194.319511	93.75	0.8306748	2	0
239.70102010968276	0.8220397000000048	1	0	0	0	0	0	0
240.52305980968276	0.8313444999998865	2	49	1196.041719	81.25	0.9185898000000634	2	0
241.35440430968265	0.8233211000001575	2	49	1196.912743	75	0.9582692000001316	2	0
242.1777254096828	0.8202268000000004	2	49	1197.677979	81.25	0.9001834999999119	2	0
242.9979522096828	0.8250931000000037	2	49	1198.656767	62.5	1.0587450000000445	2	0
243.8230453096828	0.8125956999999744	2	49	1199.335723	81.25	0.9126083999999537	2	0
244.6356410096828	0.8225804999999582	2	49	1200.051765	93.75	0.8160537999999633	2	0
245.45822150968274	0.8124055000000681	2	49	1201.036733	75	0.9784417000000758	2	0
246.2706270096828	0.8146942999999283	2	49	1201.733588	87.5	0.8628910999998425	2	0
247.08532130968274	0.8275023000001056	2	49	1202.491926	93.75	0.8065349000000879	2	0
247.91282360968285	0.8185323999998673	1	0	0	0	0	0	0
248.7313560096827	0.8156860999999935	2	49	1204.313196	75	0.9817707	2	0
249.5470421096827	0.8215311999999813	2	49	1204.971993	93.75	0.8248810000000049	2	0
250.3685733096827	0.8171227000000272	2	49	1205.823053	87.5	0.8544100999999955	2	0
251.18569600968272	0.8215440000001308	2	49	1206.627993	93.75	0.8422270999999455	2	0
252.00724000968285	0.8135879999999815	2	49	1207.457154	87.5	0.8498438999999962	2	0
252.82082800968283	0.8159698	2	49	1208.260049	93.75	0.8391512999999122	2	0
253.63679780968278	0.8136580000000322	2	49	1209.110276	87.5	0.8734084000000166	2	0
254.4504558096828	0.8196000000000367	2	49	1209.891056	87.5	0.8405302999999549	2	0
255.27005580968284	0.8217431999999008	2	49	1210.715089	93.75	0.8449635999998009	2	0
256.09179900968275	0.8261740000000373	2	49	1211.677079	75	0.9852098999999725	2	0
256.9179730096828	0.8206987999999455	1	0	0	0	0	0	0
257.7386718096827	0.8237486000000445	1	49	1212.879192	75	0.5404501000000437	1	0
258.5624204096828	0.8199710999999752	2	49	1213.885372	93.75	0.7228818999999476	1	0
259.38239150968275	0.8247599999999693	1	0	0	0	0	0	0
260.2071515096827	0.8126104000000396	2	49	1215.459838	87.5	0.6526166999999532	1	0
261.01976190968276	0.8207910999999513	1	49	1216.286984	87.5	0.6671519999999873	1	0
261.8405530096827	0.8230327999999645	2	49	1217.19254	100	0.7519171999999799	1	0
262.6635858096827	0.8098711000000094	1	0	0	0	0	0	0
263.4734569096827	0.8178542000000562	2	49	1218.768324	93.75	0.6947969000000285	1	0
264.29131110968274	0.8114502000000812	1	0	0	0	0	0	0
265.1027613096828	0.8235204000000067	2	49	1220.454359	100	0.7515277999998489	1	0
265.9262817096828	0.8176558999998633	2	49	1221.267361	100	0.7410092000000077	1	0
266.7439376096827	0.8222580000001471	2	49	1222.11634	100	0.7723329000000376	1	0
267.56619560968284	0.8232948999998371	2	49	1222.910304	93.75	0.7440387999999984	1	0
268.3894905096827	0.8184317000000192	2	49	1223.887486	81.25	0.8979261	2	0
269.2079222096827	0.8142526999999973	2	49	1224.726925	81.25	0.9189331000000038	2	0
270.0221749096827	0.8237708000001476	2	49	1225.526557	81.25	0.9043126999999913	2	0
270.84594570968284	0.817244	1	0	0	0	0	0	0
271.6631897096827	0.8064129000001685	2	49	1226.829529	75	0.5662694000000101	1	0
272.46960260968285	0.8125519000000168	2	49	1227.707536	87.5	0.6378636	1	0
273.28215450968287	0.8145139999999174	2	49	1228.790662	81.25	0.9084376999999222	2	0
274.0966685096828	0.8237717	2	49	1229.561066	87.5	0.8643276000000242	2	0
274.92044020968274	0.8195517	2	49	1230.384195	87.5	0.8636851000001116	2	0
275.73999190968266	0.8183499000001575	2	49	1231.134689	93.75	0.7946272	2	0
276.5583418096828	0.81852	2	49	1231.99397	93.75	0.8355583000000024	2	0
277.37686180968285	0.8231382999999823	2	49	1232.75083	100	0.7738980999999967	1	0
278.20000010968283	0.817736	2	49	1233.610875	93.75	0.8108055999998669	2	0
279.0177361096828	0.8256220999999186	2	49	1234.421829	93.75	0.8040234999998574	2	0
279.8433582096827	0.8245090000000346	2	49	1235.189912	100	0.7464844000000994	1	0
280.66786720968275	0.8252755000000889	2	49	1235.985025	93.75	0.7170884	1	0
281.49314270968284	0.8218233999998574	2	49	1236.908097	93.75	0.8148842999999033	2	0
282.3149661096827	0.8180563000000802	2	49	1237.687173	100	0.7721374000000196	1	0
283.1330224096828	0.8180050000000847	2	49	1238.724232	68.75	0.9911395999999968	2	0
283.95102740968287	0.8149102999998377	2	49	1239.45686	81.25	0.9057632999999896	2	0
284.7659377096827	0.8155384000001504	2	49	1240.293256	81.25	0.9272485999999844	2	0
285.58147610968285	0.8161293999999089	2	49	1241.125132	75	0.9435859999998684	2	0
286.39760550968276	0.8161414999999579	2	49	1241.935009	81.25	0.9373336000001018	2	0
287.2137470096827	0.8277947999999924	2	49	1242.563128	100	0.7493114000001242	1	0
288.0415418096827	0.8221766	1	0	0	0	0	0	0
288.86371840968286	0.8256397000000106	2	49	1244.154302	87.5	0.6905137999999624	1	0
289.68935810968287	0.8169529999997849	2	49	1245.210197	81.25	0.9207695999998577	2	0
290.50631110968266	0.8210275000001275	2	49	1245.892178	100	0.7857974000000922	1	0
291.3273386096828	0.8230392000000393	2	49	1246.709371	100	0.7819629999999052	1	0
292.1503778096828	0.8164595999999165	2	49	1247.470386	93.75	0.7199384999998983	1	0
292.96683740968274	0.8175112000001263	2	49	1248.334466	100	0.7675590000001193	1	0
293.78434860968287	0.8159393999999338	2	49	1249.081333	93.75	0.6969150999998419	1	0
294.6002880096828	0.8148544000000584	2	49	1249.999393	93.75	0.7990353999998661	2	0
295.41514240968286	0.8106151999998019	2	49	1250.843411	93.75	0.8281988999999612	2	0
296.22575760968266	0.8166018000001714	2	49	1251.55728	93.75	0.7314526000000114	1	0
297.04235940968283	0.8135032000000137	2	49	1252.581499	75	0.9390700999999808	2	0
297.85586260968284	0.8338896000000204	2	49	1253.262431	93.75	0.8064987000000201	2	0
298.68975220968287	0.8340734	2	49	1254.201369	81.25	0.9115473999997903	2	0
299.5238256096827	0.8170780000000377	1	0	0	0	0	0	0
300.34090360968275	0.8185530999999173	2	49	1255.597001	87.5	0.6560280000001057	1	0
301.1594567096827	0.8325927000000775	2	49	1256.456648	87.5	0.6971220000000358	1	0
301.99204940968275	0.8201997999999548	2	49	1257.253609	87.5	0.6614896999999473	1	0
302.8122492096827	0.8340067999999974	2	49	1258.145534	93.75	0.7332149000001209	1	0
303.6462560096827	0.8177668000000722	2	49	1258.938569	93.75	0.6922428000000309	1	0
304.4640228096828	0.8280055000000175	2	49	1259.99976	81.25	0.9356674000000567	2	0
305.2920283096828	0.8304365999999845	2	49	1260.739622	93.75	0.8475238999999419	2	0
306.1224649096828	0.8214207000000897	2	49	1261.493875	100	0.7713403000000199	1	0
306.94388560968287	0.8176663	2	49	1262.309681	100	0.7657261	1	0
307.7615519096828	0.8136314999999286	2	49	1263.135934	100	0.7743126999998822	1	0
308.5751834096827	0.8255431000000044	2	49	1263.943968	100	0.7687152000000879	1	0
309.4007265096827	0.8166418999999223	2	49	1264.801877	93.75	0.8010804000000462	2	0
310.21736840968265	0.8253769000000375	2	49	1265.656992	93.75	0.8395541	2	0
311.0427453096827	0.8132792999999765	2	49	1266.443994	93.75	0.8011793	2	0
311.85602460968266	0.8167858000001615	2	49	1267.192919	100	0.7368248000000222	1	0
312.6728104096828	0.8166536999999607	2	49	1267.949842	87.5	0.6769618999999238	1	0
313.4894641096828	0.8178711999998995	2	49	1268.750735	87.5	0.6612015000000611	1	0
314.3073353096827	0.8082041000000117	2	49	1269.576897	87.5	0.6694922000001498	1	0
315.1155394096827	0.8174728999999843	1	0	0	0	0	0	0
315.9330123096827	0.8201971000000867	2	49	1271.338054	93.75	0.8049719	2	0
316.75320940968277	0.8144804999999451	2	49	1272.275968	81.25	0.9226893000000018	2	0
317.5676899096827	0.8255908	2	49	1273.068125	81.25	0.9003652999999758	2	0
318.3932807096828	0.8176693000000341	2	49	1273.792814	93.75	0.7994630999999117	2	0
319.21095000968285	0.8121390999999676	2	49	1274.550322	100	0.7393024	1	0
320.0230891096828	0.8114811000000373	1	49	1275.278425	87.5	0.6552658	1	0
320.83457020968285	0.8179073	2	49	1276.197541	100	0.7629010999999082	1	0
321.65247750968274	0.8150799000000006	2	49	1276.98123	93.75	0.7286831999999777	1	0
322.46755740968274	0.8225651000000198	2	49	1277.836014	100	0.7683873000000858	1	0
323.29012250968276	0.8183125999998992	1	0	0	0	0	0	0
324.10843510968266	0.8166103	2	49	1279.424424	93.75	0.7159192	1	0
324.92504540968275	0.8277563999999984	2	49	1280.325307	93.75	0.8001917999999932	2	0
325.75280180968275	0.8164825000001201	2	49	1281.099795	100	0.7469235999999455	1	0
326.56928430968287	0.8172665999998117	2	49	1282.047739	87.5	0.8783852999999908	2	0
327.3865509096827	0.8162085000001298	2	49	1282.796417	93.75	0.8097965	2	0
328.2027594096828	0.8243040999998357	1	0	0	0	0	0	0
329.02706350968265	0.8134910000001128	2	49	1284.29158	87.5	0.6644471000001886	1	0
329.84055450968276	0.8212192000000869	2	49	1285.15951	93.75	0.7188860000001114	1	0
330.66177370968285	0.8218757999998161	2	49	1286.060421	93.75	0.7985771999999542	2	0
331.48364950968266	0.8191493000001628	2	49	1286.86252	100	0.7788004000001365	1	0
332.3027988096828	0.8171393	2	49	1287.919636	68.75	1.0167672999998558	2	0
333.11993810968283	0.8248751	2	49	1288.699527	75	0.9795186999999714	2	0
333.9448132096827	0.8140980000000582	2	49	1289.418083	87.5	0.8732001000000764	2	0
334.75891120968276	0.8273070000000189	2	49	1290.166683	93.75	0.8077017000000524	2	0
335.5862182096828	0.8180230000000392	2	49	1291.033706	87.5	0.8474175999999716	2	0
336.4042412096828	0.8292962999998963	2	49	1291.853594	93.75	0.8492828999999347	2	0
337.2335375096827	0.8181313000000046	2	49	1292.739828	81.25	0.9062208000000282	2	0
338.0516688096827	0.8216193000000658	2	49	1293.566757	81.25	0.9150187000000187	2	0
338.8732881096828	0.8214216999999735	2	49	1294.376884	81.25	0.9035258999999769	2	0
339.69470980968276	0.8173748	2	49	1295.054961	100	0.7601810999999543	1	0
340.5120846096827	0.8196141000000807	2	49	1295.845771	93.75	0.7336170000000948	1	0
341.33169870968277	0.8158220999998775	2	49	1296.636221	93.75	0.7044521999998778	1	0
342.14752080968265	0.8227995000002011	2	49	1297.484959	93.75	0.7373687	1	0
342.97032030968285	0.8217548999998598	2	49	1298.2608	93.75	0.6904099999999289	1	0
343.7920752096827	0.8243176000000858	1	0	0	0	0	0	0
344.6163928096828	0.8339098999999806	2	49	1299.994241	100	0.7777779999998984	1	0
345.4503027096828	0.8188895000000684	1	0	0	0	0	0	0
346.26919220968284	0.8163251999999375	2	49	1301.687287	93.75	0.8180250999998862	2	0
347.0855174096828	0.8224884999999631	2	49	1302.418946	93.75	0.7333591999999953	1	0
347.90800590968274	0.8196857000000364	2	49	1303.365763	87.5	0.8576875999999629	2	0
348.7276916096828	0.8193828000000849	2	49	1304.183869	87.5	0.8561079999999492	2	0
349.54707440968286	0.8208960999997998	1	0	0	0	0	0	0
350.36797050968266	0.8216631000000234	2	49	1305.623132	87.5	0.6550918000000365	1	0
351.1896336096827	0.8213164000001143	1	0	0	0	0	0	0
352.0109500096828	0.8173927000000276	2	49	1307.208273	81.25	0.5972532999999203	1	0
352.82834270968283	0.8206714999998894	1	49	1308.095257	87.5	0.6668445999998767	1	0
353.6490142096827	0.8220526000000064	2	49	1309.012142	100	0.7630584000000908	1	0
354.4710668096827	0.8147716999999375	2	49	1309.962311	87.5	0.8911747	2	0
355.28583850968266	0.8162397000000965	2	49	1310.789776	81.25	0.9038681000001816	2	0
356.10207820968276	0.8185042000000067	2	49	1311.605363	81.25	0.9032153000000562	2	0
356.92058240968277	0.8137395999999626	2	49	1312.362229	87.5	0.8415766000000531	2	0
357.7343220096827	0.8211793000000398	1	0	0	0	0	0	0
358.55550130968277	0.8255162000000382	2	49	1313.957299	93.75	0.8017282000000705	2	0
359.3810175096828	0.8159726999999748	2	49	1314.915487	81.25	0.9343993999998474	2	0
360.1969902096828	0.8163084000000254	2	49	1315.812197	68.75	1.0151372999998785	2	0
361.0132986096828	0.8219661999999062	2	49	1316.566487	75	0.9531190999998671	2	0
361.8352648096827	0.8156501000000844	2	49	1317.323505	81.25	0.8881702999999561	2	0
362.6509149096828	0.8204802999998719	2	49	1318.01021	100	0.7592257999999674	1	0
363.47139520968267	0.8203269000000546	2	49	1318.887666	93.75	0.8162010000000919	2	0
364.2917221096827	0.8213514000001396	2	49	1319.637801	100	0.7460094000000481	1	0
365.11307350968286	0.8239983999999367	2	49	1320.419994	93.75	0.7068502999998145	1	0
365.9370719096828	0.8223207999999431	2	49	1321.423588	87.5	0.8864467999999306	2	0
366.75939270968274	0.8142826999999215	2	49	1322.201528	87.5	0.8420658000000003	2	0
367.57367540968266	0.8231126000000586	2	49	1322.959742	100	0.7859967000001689	1	0
368.3967880096827	0.8183851999999661	2	49	1323.732899	93.75	0.7360413999999764	1	0
369.2151732096827	0.8186397000001762	2	49	1324.579007	100	0.7637640000000374	1	0
370.03381290968287	0.8210223999999471	2	49	1325.517786	87.5	0.8839035999999396	2	0
370.8548353096828	0.8142378000000008	2	49	1326.412859	75	0.9579536999999618	2	0
371.6690731096828	0.812214	1	0	0	0	0	0	0
372.48128710968285	0.8237014999999701	2	49	1327.884121	93.75	0.8027638	2	0
373.3049886096828	0.8220080999999482	2	49	1328.911897	68.75	1.0068390999999792	2	0
374.12699670968277	0.8264507999999751	2	49	1329.537151	93.75	0.8100841	2	0
374.95344750968275	0.8164845000001151	2	49	1330.378366	93.75	0.8248490999999376	2	0
375.76993200968286	0.8172224999998434	2	49	1331.127886	100	0.7578846999999769	1	0
376.5871545096827	0.8289567000001625	2	49	1331.981054	100	0.7938294000000496	1	0
377.41611120968287	0.8175029999999879	2	49	1332.807129	100	0.7909475999999813	1	0
378.23361420968286	0.8136367999998129	1	0	0	0	0	0	0
379.04725100968267	0.8127730000001065	2	49	1334.058224	56.25	0.41090359999998327	1	0
379.8600240096828	0.8164090999998734	2	49	1335.060389	81.25	0.6002955	1	0
380.67643310968265	0.8108543000000736	2	49	1336.006184	93.75	0.7296810000000278	1	0
381.4872874096827	0.8149728000000778	2	49	1337.043792	75	0.9564353000000665	2	0
382.3022602096828	0.8218248000000585	2	49	1337.835219	81.25	0.9328892999999425	2	0
383.12408500968286	0.8183525999997983	1	0	0	0	0	0	0
383.94243760968266	0.8176197000000229	2	49	1339.029217	68.75	0.48670940000010887	1	0
384.7600573096827	0.8203029000001152	2	49	1340.076151	93.75	0.7160240000000613	1	0
385.5803602096828	0.8212783999999829	2	49	1340.834292	87.5	0.6538617999999587	1	0
386.4016386096828	0.8171956999999566	1	0	0	0	0	0	0
387.21883430968273	0.8233230000000731	2	49	1342.721365	81.25	0.9024613999999929	2	0
388.0421573096828	0.8275366000000304	2	49	1343.465051	93.75	0.8228234999999131	2	0
388.86969390968284	0.8331297999998242	2	49	1344.25445	100	0.7846858999998858	1	0
389.70282370968266	0.8185074000000441	2	49	1345.051441	100	0.7485476000001654	1	0
390.5213311096827	0.8174238000001424	2	49	1345.882917	100	0.7615166	1	0
391.33875490968285	0.8210152999999991	2	49	1346.813484	87.5	0.8746591999999964	2	0
392.15977020968285	0.8237356999998156	2	49	1347.624056	87.5	0.8642156999999315	2	0
392.98350590968266	0.8162474000000657	2	49	1348.476484	81.25	0.8929087999999865	2	0
393.7997533096827	0.8189047000000755	2	49	1349.277698	87.5	0.8778749000000516	2	0
394.6186580096828	0.8189996	2	49	1350.231588	68.75	1.0128606999999192	2	0
395.4376576096827	0.8197939000001497	2	49	1351.223078	50	1.1853507000000718	2	0
396.2574515096828	0.8164816999999402	2	0	0	0	0	0	0
397.07393320968276	0.8267590999998902	2	49	1352.180335	68.75	0.5063325000000987	1	0
397.90069230968265	0.8219822000000931	2	49	1353.12552	81.25	0.6247584000000188	1	0
398.72267450968275	0.8253460999999334	2	49	1354.100683	100	0.7779390999999123	1	0
399.5480206096827	0.8184479000001375	2	49	1354.902714	100	0.7546231999999691	1	0
400.3664685096828	0.8164832999998453	2	49	1355.819695	87.5	0.8531571999999414	2	0
401.18295180968266	0.8077656000000388	2	49	1356.685715	81.25	0.9026936000000205	2	0
401.9907174096827	0.8268394000001535	2	49	1357.512736	81.25	0.9219490000000405	2	0
402.81755680968286	0.8178184999999303	2	49	1358.414772	68.75	0.9971450999998979	2	0
403.6353753096828	0.8171334999999544	2	49	1359.148198	81.25	0.9127531	2	0
404.45250880968274	0.8231837999999243	2	49	1360.150843	62.5	1.0982647999999244	2	0
405.27569260968266	0.822941	2	49	1360.908736	68.75	1.0329734000001736	2	0
406.0986336096828	0.8237188999999034	1	0	0	0	0	0	0
406.9223525096827	0.8177368000001479	2	49	1362.077606	75	0.5551837000000432	1	0
407.74008930968284	0.8258988999998564	2	49	1362.971021	81.25	0.6308617999998205	1	0
408.5659882096827	0.8221665999999459	2	49	1363.897838	93.75	0.7317795999999817	1	0
409.38815480968265	0.8220260000000508	2	49	1364.741023	100	0.7527987000000849	1	0
410.2101808096827	0.8207700000000386	2	49	1365.691273	87.5	0.8810227000001305	2	0
411.03095080968274	0.8111796000000595	2	0	0	0	0	0	0
411.8421304096828	0.8160011	2	49	1366.874148	62.5	0.4319482999999309	1	0
412.6581315096828	0.8092142999998941	2	49	1367.818137	75	0.5599356000000171	1	0
413.4673458096827	0.8309248	2	49	1368.727261	87.5	0.6598452000000634	1	0
414.29827060968273	0.8214740000000802	2	49	1369.611207	93.75	0.7128662000000077	1	0
415.1197446096828	0.8255468999998357	2	49	1370.471302	100	0.7514874999999392	1	0
415.94529150968265	0.8306313	2	49	1371.34727	93.75	0.8019090000000233	2	0
416.7759228096827	0.8175734000001285	2	49	1372.158366	100	0.7823730000000069	1	0
417.5934962096828	0.8155773999999383	2	49	1372.956447	100	0.7628807999999481	1	0
418.40907360968276	0.8181810000000951	2	49	1373.820499	93.75	0.8113558000000012	2	0
419.22725460968286	0.8142836999998053	1	0	0	0	0	0	0
420.04153830968266	0.8126823000000059	2	49	1375.366432	93.75	0.7248239000000467	1	0
420.85422060968267	0.8227489000000787	2	49	1376.317352	87.5	0.8630619000000479	2	0
421.67696950968275	0.8237521999999444	2	49	1377.181417	81.25	0.9043781000000308	2	0
422.5007217096827	0.8168792000001304	2	49	1378.054536	75	0.9537447000000157	2	0
423.3176009096828	0.8320512999998755	2	49	1378.847897	81.25	0.9302267999999003	2	0
424.1496522096827	0.8146001000000069	2	49	1379.678527	81.25	0.9288054999999531	2	0
424.9642523096827	0.8183910000000196	2	49	1380.385464	93.75	0.8211420000000089	2	0
425.7826433096827	0.8146242000000257	2	49	1381.242391	87.5	0.8596775999999409	2	0
426.59726750968275	0.8203447999999298	2	49	1382.010587	93.75	0.8132497999999941	2	0
427.4176123096827	0.8188517000000957	2	49	1382.809552	100	0.7918702000001758	1	0
428.2364640096828	0.8184653000000708	2	49	1383.874818	68.75	1.038284400000066	2	0
429.05492930968285	0.8231326000000081	2	49	1384.63566	75	0.9806609999998273	2	0
429.87806190968286	0.8175664999998844	2	49	1385.343765	87.5	0.8656333999999788	2	0
430.69562840968274	0.8165564999999333	2	49	1386.084638	100	0.7889402	1	0
431.5121849096827	0.8116567000001851	2	49	1386.874908	100	0.7626537000001008	1	0
432.32384160968286	0.8181084999998802	2	49	1387.659777	93.75	0.7358659999999873	1	0
433.14195010968274	0.8177771000000575	2	49	1388.422824	87.5	0.6808042000000114	1	0
433.9597272096828	0.8170184000000518	2	49	1389.280001	93.75	0.7202044999999089	1	0
434.77674560968285	0.8169636000000082	2	49	1390.311748	81.25	0.9349330999998529	2	0
435.59370920968286	0.8217756999999892	2	49	1391.141035	75	0.9472561999998561	2	0
436.41548490968285	0.8245906	2	49	1392.040237	68.75	1.0246827999999368	2	0
437.2400755096828	0.8207643999999163	2	49	1392.8069	75	0.9667544999999791	2	0
438.0608399096827	0.8155481999999665	2	49	1393.548826	87.5	0.8879163999999946	2	0
438.8763881096827	0.8147541000000729	2	49	1394.344068	87.5	0.8676097000000027	2	0
439.69114220968277	0.8094031999999061	2	49	1395.239917	75	0.9487051999999494	2	0
440.5005454096827	0.8156973000000107	2	49	1396.048084	75	0.9474687000001722	2	0
441.3162427096827	0.8178554000000986	2	49	1396.848216	81.25	0.9319040000000314	2	0
442.1340981096828	0.8189517000000706	2	49	1397.69608	75	0.9619119999999839	2	0
442.95304980968285	0.8194373999999698	2	49	1398.505499	75	0.9523798	2	0
443.7724872096828	0.8138730999999098	2	49	1399.301521	81.25	0.9289639999999508	2	0
444.58636030968273	0.8216836999999941	2	49	1400.088109	81.25	0.9016788	2	0
445.4080440096827	0.8138754000001427	1	0	0	0	0	0	0
446.22191940968287	0.8212364999999409	2	49	1401.809039	75	0.9870502999999644	2	0
447.0431559096828	0.8127869999998438	2	49	1402.449974	93.75	0.8067481000000498	2	0
447.85594290968265	0.8219516999999996	2	49	1403.267485	93.75	0.8114723	2	0
448.67789460968265	0.8142557000001034	2	49	1404.080711	93.75	0.8027465	2	0
449.49215030968276	0.8148839999998927	2	49	1404.849802	100	0.7575816000000941	1	0
450.30703430968265	0.8230921000001672	2	49	1405.596447	93.75	0.6893429000001561	1	0
451.1301264096828	0.8219595999999001	2	49	1406.371509	87.5	0.6413126	1	0
451.9520860096827	0.8152861000000939	1	49	1407.098818	75	0.5466621000000487	1	0
452.7673721096828	0.8184903999999733	2	49	1408.11439	100	0.7469478999998955	1	0
453.5858625096828	0.8167671999999584	2	49	1409.10197	81.25	0.9160377999999127	2	0
454.40262970968274	0.8227544999999736	2	49	1409.993718	75	0.9910190000000512	2	0
455.2253842096827	0.8178120000000035	2	49	1410.729476	81.25	0.9040225000001101	2	0
456.0431962096827	0.8135833999999704	2	49	1411.417197	100	0.7739309000000958	1	0
456.8567796096827	0.8138535000000502	1	0	0	0	0	0	0
457.67063310968274	0.8222923000000719	2	49	1412.934001	87.5	0.6632985000001099	1	0
458.4929254096828	0.8256375	2	49	1413.877699	100	0.7847034999999778	1	0
459.31856290968267	0.8155902000000879	2	49	1414.631575	93.75	0.7129422000000432	1	0
460.13415310968276	0.8215006000000358	2	49	1415.55869	93.75	0.8244672999999239	2	0
460.9556537096828	0.8269917999998597	2	49	1416.371089	93.75	0.8153654999998707	2	0
461.78264550968265	0.8204948000000059	2	49	1417.129522	100	0.7468064000001959	1	0
462.60314030968266	0.8166444000000865	2	49	1417.983755	100	0.7805450000000747	1	0
463.41978470968274	0.8157286000000568	2	49	1418.779992	100	0.7601376000000073	1	0
464.2355133096828	0.8220380999998724	2	49	1419.62174	100	0.7861571999999342	1	0
465.0575514096827	0.8212542000001122	2	49	1420.40882	100	0.7511984000000211	1	0
465.8788056096828	0.8185677999999825	2	49	1421.295974	93.75	0.8170990999999503	2	0
466.69737340968277	0.8172016000000895	2	49	1422.078034	100	0.7805906	1	0
467.51457500968286	0.8107266999998046	2	49	1422.911762	93.75	0.7971168999999918	2	0
468.32530170968266	0.8146024000000125	2	49	1423.699053	100	0.7736815000000661	1	0
469.1399041096827	0.8167955999999776	2	49	1424.467776	93.75	0.7278023000001212	1	0
469.95669970968265	0.8135319000000436	2	49	1425.604174	62.5	1.0474040999999943	2	0
470.7702316096827	0.8194410000000971	2	49	1426.320035	81.25	0.9497341000001143	2	0
471.5896726096828	0.8285845000000336	2	49	1427.002101	93.75	0.8123587999998563	2	0
472.4182571096828	0.8177481000000171	1	0	0	0	0	0	0
473.23600520968284	0.8205032999999275	2	49	1428.542409	93.75	0.7063337999998112	1	0
474.05650850968277	0.8184089999999742	2	49	1429.385947	93.75	0.7293683999998848	1	0
474.87491750968275	0.8253320000001168	2	49	1430.351156	87.5	0.8761692000000494	2	0
475.70024950968286	0.8204912999999578	2	49	1431.150159	87.5	0.8498399999998583	2	0
476.5207408096828	0.8106654999999137	2	49	1432.016081	81.25	0.8952700999998342	2	0
477.33140630968273	0.8152179	2	49	1432.87041	75	0.9389341000000968	2	0
478.14662420968284	0.8225361999998313	2	49	1433.722274	75	0.9755795999999464	2	0
478.9691604096827	0.8173749000000043	2	49	1434.442456	87.5	0.8732259000000795	2	0
479.7865353096827	0.8209145000000717	2	49	1435.192382	93.75	0.8057766	2	0
480.60744980968275	0.8136999000000742	2	49	1436.155765	75	0.9482457999999951	2	0
481.4211497096828	0.8261556999998447	2	49	1436.923234	87.5	0.9020146000000295	2	0
482.24730540968267	0.8201312000001053	2	49	1437.71616	87.5	0.8687846000000263	2	0
483.0674366096828	0.8195917000000463	2	49	1438.403485	93.75	0.7359784000000218	1	0
483.8870283096828	0.8141278000000511	2	49	1439.218524	93.75	0.7314263999999184	1	0
484.70115610968287	0.8187929999999142	2	49	1440.07033	100	0.7691041999999015	1	0
485.5199491096828	0.8136190999998689	2	49	1440.831457	93.75	0.7114380000000438	1	0
486.33356820968265	0.8191558000000896	2	49	1441.703734	100	0.7700959000001149	1	0
487.15272400968274	0.8156057999999575	2	49	1442.541475	93.75	0.7886811999999281	2	0
487.9683298096827	0.8086034000000382	1	49	1443.345653	100	0.7772532	1	0
488.77693320968274	0.8179044999999405	1	0	0	0	0	0	0
489.5948377096827	0.8141673000000083	1	0	0	0	0	0	0
490.4090050096827	0.8185111000000234	1	0	0	0	0	0	0
491.2275161096827	0.8135604000001422	2	49	1446.880508	62.5	1.0529225000000224	2	0
492.04107650968285	0.8190910999999232	2	49	1447.504959	87.5	0.8638123999999152	2	0
492.8601676096828	0.8229882000000543	2	49	1448.197704	93.75	0.7374661999999716	1	0
493.68315580968283	0.8134345999999368	2	49	1449.026822	100	0.7435968999998295	1	0
494.49659040968277	0.8249438999998802	2	49	1449.716864	81.25	0.6202037999998993	1	0
495.32153430968265	0.8216052000000218	2	49	1450.567153	87.5	0.6455493000000843	1	0
496.14313950968267	0.8146602000001621	2	49	1451.457854	93.75	0.7146443999999974	1	0
496.95779970968283	0.8105127999999695	1	0	0	0	0	0	0
497.7683125096828	0.8190901000000395	2	49	1453.116875	100	0.7484924000000319	1	0
498.58740260968284	0.8149233999999979	2	49	1453.901929	93.75	0.7144561999998587	1	0
499.40232600968284	0.8140547999998944	2	49	1454.813088	93.75	0.8106920999998692	2	0
500.21638080968273	0.8201619000001301	1	0	0	0	0	0	0
501.03654270968286	0.8185505999999805	2	49	1456.24028	81.25	0.6036677	1	0
501.85509330968284	0.8187866999999187	2	49	1457.133883	87.5	0.6787194999999429	1	0
502.67388000968276	0.8224910999999793	2	49	1458.006104	93.75	0.7321544999999787	1	0
503.49637110968274	0.8210652000000209	2	49	1458.893004	93.75	0.7965627	2	0
504.31743630968276	0.8201274999998986	2	49	1459.706187	100	0.7886806999999862	1	0
505.13756380968266	0.8167635000002065	2	49	1460.594541	87.5	0.8569071000001713	2	0
505.95432730968287	0.8167323999998644	2	49	1461.388196	93.75	0.8337989999999991	2	0
506.77105970968273	0.8107852000000548	2	49	1462.14628	100	0.7751505000001089	1	0
507.5818449096828	0.8208316999998715	2	49	1462.993316	93.75	0.8114015999999538	2	0
508.40267660968266	0.8155291000000489	1	0	0	0	0	0	0
509.2182057096827	0.8103255	2	49	1464.514667	93.75	0.6963914000000386	1	0
510.0285312096828	0.8225549999999657	2	49	1465.500646	87.5	0.8720455000000129	2	0
510.85108620968276	0.8240278000000671	2	49	1466.342426	87.5	0.8912698999999975	2	0
511.67511400968283	n/a	0	0	0	0	0	0	0