onset	duration	cue	constant1	timestamp	stimulus_coherence	response_time	response	constant2
20.55943245409071	0.865922	2	49	5594.820156	100	0.8371667000001253	1	0
21.425354454090666	0.8675715999997919	1	0	0	0	0	0	0
22.292926054090458	0.8553178000001935	2	49	5596.571236	93.75	0.8547528999997667	2	0
23.14824385409065	0.8570792999998957	2	49	5597.364258	100	0.7924579999998969	1	0
24.005323154090547	0.9760597000004054	2	49	5598.301988	100	0.8731084999999439	1	0
24.981382854090953	0.8681542999993326	1	49	5599.32165	87.5	0.9167103	2	0
25.849537154090285	0.8537958000006256	2	49	5600.22476	81.25	0.9516663000003973	2	0
26.70333295409091	0.8629780999999639	2	49	5601.072119	81.25	0.9452296999997998	2	0
27.566311054090875	0.8560816	2	49	5602.019262	75	1.029393899999377	2	0
28.42239265	0.8709070999993855	2	49	5602.993736	62.5	1.147786499999711	2	0
29.293299754090185	0.8823758000007729	2	49	5603.708557	81.25	0.9917011000006823	2	0
30.175675554090958	0.9157513000000108	2	49	5604.516283	93.75	0.9170503999994253	2	0
31.09142685409097	0.8549012999992556	2	49	5605.441708	87.5	0.9267243999993298	2	0
31.946328154090224	0.8507550000003903	1	0	0	0	0	0	0
32.797083154090615	0.8514050000003408	2	49	5606.965957	93.75	0.7453170999997383	1	0
33.648488154090956	0.8491416999995636	2	49	5607.866377	100	0.7943317999997817	1	0
34.49762985409052	0.8801157999996576	2	49	5608.821596	87.5	0.9004096999997273	2	0
35.37774565409018	0.8679520000005141	2	49	5609.708696	87.5	0.9073935000005804	2	0
36.24569765409069	0.8467559	2	49	5610.528664	93.75	0.8594094000000041	2	0
37.09245355409075	0.8732398000001922	2	49	5611.417679	87.5	0.9016688000001523	2	0
37.965693354090945	0.8519698999998582	2	49	5612.312294	87.5	0.9230438999993567	2	0
38.81766325	0.8487669999994978	2	49	5613.063229	100	0.8220086999999694	1	0
39.66643025	0.8470114000001558	2	49	5613.903667	100	0.8136804000005213	1	0
40.51344165409046	0.8659279000003153	2	49	5614.824878	93.75	0.8878795000000537	2	0
41.37936955409077	0.8564354999998613	2	49	5615.633356	93.75	0.8304298000002746	2	0
42.23580505409063	0.8642346999995425	2	49	5616.5517	93.75	0.8923388000002888	2	0
43.100039754090176	0.8556819000004907	2	49	5617.413456	87.5	0.8898596000008183	2	0
43.95572165409067	0.8470138000002407	2	49	5618.241336	93.75	0.8620575	2	0
44.80273545409091	0.8986011999995753	2	49	5619.193049	87.5	0.9667565	2	0
45.70133665409048	0.8537575999998808	2	49	5620.044165	87.5	0.9192714999999225	2	0
46.55509425409036	0.8575780999999552	2	49	5620.804206	100	0.8255551000002015	1	0
47.41267235409032	0.8575089000005391	2	49	5621.661829	100	0.8255999000002703	1	0
48.27018125409086	0.8567894999996497	2	49	5622.535937	93.75	0.8421990999995614	2	0
49.12697075409051	0.8642528999998831	2	49	5623.373167	100	0.8226395000001503	1	0
49.99122365409039	0.8710209999999279	2	49	5624.609684	56.25	1.1949036000005435	2	0
50.86224465409032	0.9084599000007074	2	49	5625.120373	93.75	0.8345722000003661	1	0
51.770704554091026	0.8548585999997158	2	49	5625.973835	100	0.7795740999999907	1	0
52.62556315409074	0.8666155999999319	2	49	5626.783015	93.75	0.7338953999997102	1	0
53.49217875409067	0.8586546999995335	2	49	5627.677328	93.75	0.7615929000003234	1	0
54.35083345409021	0.8624228000007861	2	49	5628.551556	93.75	0.7771657000002961	1	0
55.21325625409099	0.8610484000000724	2	49	5629.414691	93.75	0.7778779000000213	1	0
56.074304654091065	0.8448945999998614	2	49	5630.251523	93.75	0.7536613	1	0
56.91919925409093	0.8634643999994296	2	49	5631.123209	93.75	0.7804533999997147	1	0
57.782663654090356	0.8876516000000265	2	49	5632.028611	100	0.8223904000005859	1	0
58.67031525409038	0.8636508999998114	2	49	5632.977399	93.75	0.8835267000004023	2	0
59.533966154090194	0.8581222000002526	2	49	5633.730062	93.75	0.7725392000002103	1	0
60.39208835409045	0.8486038000000917	2	49	5634.744166	81.25	0.9285213000002841	2	0
61.24069215409054	0.8490182000005007	2	49	5635.507052	93.75	0.8428027999998449	2	0
62.08971035409104	0.8559863999998925	2	49	5636.310697	100	0.7974300999994739	1	0
62.94569675409093	0.8665031999998973	2	49	5637.097749	93.75	0.7284959999997227	1	0
63.81219995409083	0.8997744999996939	1	49	5638.089555	100	0.8537987999998222	1	0
64.71197445409052	0.8536488999998255	2	49	5638.964655	93.75	0.8291243000003305	2	0
65.56562335409035	0.8651620999999068	2	49	5639.935802	81.25	0.9466221000002406	2	0
66.43078545409026	0.8412422999999762	2	49	5640.685379	93.75	0.8310365000006641	2	0
67.27202775409023	0.8744609000004857	2	49	5641.79493	68.75	1.0993461	2	0
68.14648865409072	0.8488712999997006	2	49	5642.388488	100	0.8184424999999464	1	0
68.99535995409042	0.8425361999998131	1	0	0	0	0	0	0
69.83789615409023	0.8459924000007959	2	49	5644.068692	100	0.8072394000000713	1	0
70.68388855409103	0.8579539999991539	2	49	5644.800185	87.5	0.6927395999991859	1	0
71.54184255409018	0.8507572000007713	2	49	5645.869328	87.5	0.9039285000008022	2	0
72.39259975409095	0.8508498000001055	1	0	0	0	0	0	0
73.24344955409106	0.8526745999997729	2	49	5647.33836	87.5	0.6713540999999168	1	0
74.09612415409083	0.8617616000001362	1	49	5648.281307	93.75	0.7616266999993968	1	0
74.95788575409097	0.8879486999994697	2	49	5649.107556	87.5	0.7261140999999043	1	0
75.84583445409044	0.8911783000003197	2	49	5650.125589	100	0.8561977999997907	1	0
76.73701275409076	0.8862896999999066	2	49	5651.017378	100	0.8568090999997366	1	0
77.62330245409066	0.8869870999997147	1	0	0	0	0	0	0
78.51028955409038	0.8638619000003018	1	49	5652.65474	87.5	0.7208940999998958	1	0
79.37415145409068	0.8573039000002609	2	49	5653.800652	81.25	1.002944199999547	2	0
80.23145535409094	0.8767201999999088	2	49	5654.664263	81.25	1.0092506000000867	2	0
81.10817555409085	0.90641	2	49	5655.431531	100	0.8997988000000987	1	0
82.01458555409044	0.8665865000002668	2	0	0	0	0	0	0
82.88117205409071	0.8846516000003248	2	49	5656.946247	75	0.6415184	1	0
83.76582365409104	0.8725948999999673	2	49	5657.969595	93.75	0.7802146999993056	1	0
84.63841855	0.8779468999991877	2	49	5658.896082	100	0.8341064999995069	1	0
85.51636545409019	0.9208208000000013	2	49	5659.806997	100	0.8670753000005789	1	0
86.43718625	0.8776706000007835	2	49	5660.753894	93.75	0.8931507000006604	2	0
87.31485685409098	0.9039309999998295	2	49	5661.604584	100	0.8661704999994981	1	0
88.21878785	0.8625065999995059	1	0	0	0	0	0	0
89.08129445409031	0.8757748000007268	2	49	5663.415048	93.75	0.9101973000006183	2	0
89.95706925409104	0.9050873999995019	2	49	5664.271734	93.75	0.8911081999995076	2	0
90.86215665409054	0.9190387999997256	2	49	5665.067264	93.75	0.7815505999997185	1	0
91.78119545409027	0.8674022000004697	2	49	5666.307036	68.75	1.102284000000509	2	0
92.64859765409074	0.8932366999997612	2	49	5667.106435	75	1.0342811999998958	2	0
93.54183435	0.8739175999999134	2	49	5667.854396	93.75	0.8890049999999974	2	0
94.41575195409041	0.8794201000000612	2	49	5668.665193	100	0.825884	1	0
95.29517205409047	0.8702448000003642	1	0	0	0	0	0	0
96.16541685409084	0.8865004999997836	2	49	5670.280974	81.25	0.6920006999998805	1	0
97.05191735409062	0.8885896000001594	2	49	5671.273223	93.75	0.7977491999999984	1	0
97.94050695409078	0.8730407000002742	2	49	5672.211452	93.75	0.8473882999996931	2	0
98.81354765409105	0.8765279999997801	1	0	0	0	0	0	0
99.69007565409083	0.8744274999999107	2	49	5673.901486	93.75	0.7878538999993907	1	0
100.56450315409074	0.9128915999999663	2	49	5674.8641	100	0.8760403999995106	1	0
101.47739475409071	0.8780275999997684	2	49	5675.967416	75	1.0664647000003242	2	0
102.35542235409048	0.8831331000001228	2	49	5676.603494	100	0.8245146999997814	1	0
103.2385554540906	0.8597833000003448	2	49	5677.535798	93.75	0.8736859	2	0
104.09833875409095	0.8692641	2	49	5678.323599	100	0.8017034999993484	1	0
104.96760285409073	0.8699804999996559	2	49	5679.208571	100	0.8174110999998447	1	0
105.83758335409038	0.8835538000002998	2	49	5680.122393	93.75	0.8612535000002026	2	0
106.72113715409068	0.8681066999997711	2	49	5681.132775	81.25	0.9880814999996801	2	0
107.58924385409045	0.8649163999998564	2	49	5681.886988	93.75	0.8741877000002205	2	0
108.45416025409031	0.8616596000001664	2	49	5682.679665	100	0.8019484000005832	1	0
109.31581985409048	0.8807894999999917	2	49	5683.527653	93.75	0.7882767999999487	1	0
110.19660935409047	0.8670284	2	49	5684.582197	87.5	0.9620310999998765	2	0
111.06363775409045	0.873859	2	49	5685.488129	81.25	1.0009343000001536	2	0
111.93749675409072	0.8892478999996456	2	49	5686.361354	81.25	1.0003010999998878	2	0
112.82674465409036	0.8651116999999431	2	49	5687.138522	93.75	0.8882211999998617	2	0
113.6918563540903	0.8552791000001889	2	49	5688.02154	87.5	0.9061271000000488	2	0
114.5471354540905	0.8756768000002921	2	49	5688.902108	87.5	0.9314156000000366	2	0
115.42281225409079	0.8664635999994061	2	49	5689.884356	75	1.0379869999997027	2	0
116.28927585409019	0.8616740000006757	2	49	5690.690682	81.25	0.9778497	2	0
117.15094985409087	0.8604084999997212	2	49	5691.315122	93.75	0.7406151999994108	1	0
118.01135835409059	0.8534419999996317	2	49	5692.261927	100	0.8270120999995925	1	0
118.86480035409022	0.8697281000004295	2	49	5692.988243	87.5	0.6998859000004813	1	0
119.73452845409065	0.8889843999995719	2	49	5693.859191	87.5	0.7011059999995268	1	0
120.62351285409022	0.9160754	2	49	5694.878901	93.75	0.8318318000001454	1	0
121.53958825409063	0.8781501000003118	2	49	5695.799294	100	0.8361494999999195	1	0
122.41773835409094	0.8839834000000337	2	49	5696.547429	87.5	0.706134	1	0
123.30172175409098	0.8806291000000783	2	49	5697.504418	93.75	0.7791400999994949	1	0
124.18235085409106	0.8627611999991132	2	49	5698.357944	93.75	0.7520364999991216	1	0
125.04511205409017	0.8726929	2	49	5699.494335	75	1.025666500000625	2	0
125.91780495409057	0.8906218	2	49	5700.140499	93.75	0.7991375999999946	1	0
126.80842675409076	0.8718196999998327	2	49	5701.074151	100	0.8421671999994942	1	0
127.6802464540906	0.8666845	2	49	5702.04282	87.5	0.9390169999996942	2	0
128.54693095409039	0.8679178000002139	2	49	5702.91038	87.5	0.9398926000003485	2	0
129.4148487540906	0.8755403000004662	2	49	5703.748942	93.75	0.9105362000000241	2	0
130.29038905409107	0.8780859999997119	2	49	5704.646043	87.5	0.9320968999991237	2	0
131.16847505409078	0.8918699999994715	2	49	5705.610981	81.25	1.0189488999994865	2	0
132.06034505409025	0.8777254000005996	2	49	5706.477066	81.25	0.9931640000004336	2	0
132.93807045409085	0.8783439999997427	2	49	5707.178552	100	0.8169246999996176	1	0
133.8164144540906	0.8579132000004392	2	49	5707.962025	87.5	0.7220544	1	0
134.67432765409103	0.8714758999994956	2	49	5708.88296	93.75	0.7850758999993559	1	0
135.54580355409053	0.8686784999999873	2	49	5709.840346	93.75	0.8709860999997545	2	0
136.4144820540905	0.8965045000004466	2	49	5710.753783	93.75	0.9157444000002215	2	0
137.31098655409096	0.8817635999994309	2	49	5711.584933	100	0.8503898999997546	1	0
138.1927501540904	0.8845599000005677	2	49	5712.432592	93.75	0.8162852000004932	1	0
139.07731005409096	0.8784207999997307	2	49	5713.293445	93.75	0.7925780999994458	1	0
139.9557308540907	0.9048319000003175	2	49	5714.212545	100	0.8332573999996384	1	0
140.8605628	0.8860113000000638	2	49	5715.128272	100	0.8441528999992443	1	0
141.74657405409107	0.8840839999993477	2	49	5716.043669	93.75	0.8735388	2	0
142.63065805409042	0.8709675999998581	1	0	0	0	0	0	0
143.50162565409028	0.8698908000005758	2	49	5717.605596	87.5	0.6804136999999173	1	0
144.37151645409085	0.8623849999994491	2	49	5718.523361	87.5	0.7282878999994864	1	0
145.2339014540903	0.8867954000006648	2	49	5719.515504	93.75	0.8580455000001166	2	0
146.12069685409097	0.8755383999996411	2	49	5720.530277	81.25	0.9860233999997945	2	0
146.9962352540906	0.8840828000002148	2	49	5721.199854	93.75	0.7800620999996681	1	0
147.88031805409082	0.8751901999994516	1	49	5722.035459	87.5	0.7315840999999637	1	0
148.75550825409027	0.8851251000005504	2	49	5723.170617	87.5	0.9915522000001147	2	0
149.64063335409082	0.8994095999996716	2	49	5724.091852	81.25	1.0276618999996572	2	0
150.5400429540905	0.9011581000004298	2	49	5725.013283	75	1.0496837000000596	2	0
151.44120105409093	0.8920580999993035	2	49	5725.569509	81.25	0.7047511000000668	1	0
152.33325915409023	0.8621861000001445	2	49	5726.689389	87.5	0.9325729000001957	2	0
153.19544525409037	0.8734057000001485	2	49	5727.661983	75	1.042981300000065	2	0
154.06885095409052	0.8667526	2	49	5728.250459	93.75	0.7580512000004092	1	0
154.93560355409045	0.8782081	2	49	5728.962893	75	0.6037323999998989	1	0
155.8138116540904	0.8764742000003025	2	49	5730.04892	100	0.8115519000002678	1	0
156.6902858540907	0.8901034999998956	2	49	5730.920368	93.75	0.8065252999995209	1	0
157.58038935409058	0.8880047000002378	2	49	5731.811736	93.75	0.8077905000000101	1	0
158.46839405409082	0.8764271000000008	2	49	5732.717831	100	0.8258798999995633	1	0
159.34482115409082	0.8884272999994209	2	49	5733.781955	81.25	1.013577699999587	2	0
160.23324845409024	0.8797739999999976	2	49	5734.528463	93.75	0.8716583000004903	2	0
161.11302245409024	0.9168724000001021	2	49	5735.73048	62.5	1.193901200000255	2	0
162.02989485409034	0.8776557000001048	1	0	0	0	0	0	0
162.90755055409045	0.8735458999999537	1	49	5737.11855	93.75	0.7874427000006108	1	0
163.7810964540904	0.8859196000003067	2	49	5738.286384	68.75	1.081730900000366	2	0
164.6670160540907	0.8767846000000645	2	49	5738.902816	100	0.8122433999997156	1	0
165.54380065409077	0.8690384000001359	2	49	5739.784819	100	0.8174615999996604	1	0
166.4128390540909	0.8761356	2	49	5740.633244	93.75	0.7968479000001025	1	0
167.28897465409045	0.8616841000002751	2	49	5741.537586	100	0.8250549000003957	1	0
168.15065875409073	0.8780532999999195	2	49	5742.322183	87.5	0.7479678999998214	1	0
169.02871205409065	0.8737823000001299	2	49	5743.207914	93.75	0.755645	1	0
169.90249435409078	0.8860229000001709	2	49	5744.042964	81.25	0.7169130000002042	1	0
170.78851725409095	0.8751500999997006	2	49	5745.036848	100	0.8247736999992412	1	0
171.66366735409065	0.8709606000002168	2	49	5745.817784	87.5	0.7305602999995244	1	0
172.53462795409087	0.8931171	2	49	5746.748007	93.75	0.7898220999995829	1	0
173.42774505409034	0.8570860999998331	2	49	5747.728423	93.75	0.8771213999998508	2	0
174.28483115409017	0.8868416	1	0	0	0	0	0	0
175.17167275409065	0.8774346	1	0	0	0	0	0	0
176.04910735409067	0.8779877999995733	2	49	5750.321971	100	0.8493071000002601	1	0
176.92709515409024	0.8869072000006781	2	49	5751.147029	93.75	0.7963771000004272	1	0
177.81400235409092	0.8525302999996711	2	49	5752.109348	93.75	0.8717886999993425	2	0
178.6665326540906	0.8663304000001517	2	49	5752.967599	93.75	0.8775096999997913	2	0
179.53286305409074	0.8582507999999507	2	49	5753.879636	87.5	0.9232161999998425	2	0
180.3911138540907	0.8839481	2	49	5754.847058	75	1.032387999999628	2	0
181.27506195409023	0.8733809	2	49	5755.422122	87.5	0.7235039000006509	1	0
182.14844285409072	0.8766349999996237	2	49	5756.259439	81.25	0.6874398999998448	1	0
183.02507785409034	0.9031329	2	49	5757.244148	93.75	0.7955134000003454	1	0
183.9282107540903	0.9109624000002441	2	49	5758.168783	93.75	0.8170159000001149	1	0
184.83917315409053	0.8926061000001937	2	49	5759.06346	93.75	0.8007299000000785	1	0
185.73177925409072	0.8776952999996865	2	49	5760.128406	87.5	0.9730698000003031	2	0
186.6094745540904	0.9114220000001296	2	49	5760.82686	87.5	0.7938287000006312	1	0
187.52089655409054	0.8703224999999293	2	49	5761.89447	87.5	0.9500164	2	0
188.39121905409047	0.8770061000004716	2	49	5762.675046	93.75	0.8602707999998529	2	0
189.26822515409094	0.8868549999997413	2	49	5763.630067	87.5	0.9382851000000301	2	0
190.15508015409068	0.8770974999997634	2	49	5764.484713	93.75	0.9060766000002332	2	0
191.03217765409045	0.8756123000002844	2	49	5765.360947	93.75	0.9052132000006168	2	0
191.90778995409073	0.8934505999995963	2	49	5766.403189	75	1.071842899999865	2	0
192.80124055409033	0.8728466	2	49	5767.064706	100	0.8399091000001135	1	0
193.67408715409056	0.8855272000000696	2	49	5767.862757	93.75	0.7651131000002351	1	0
194.55961435409063	0.8785606	2	49	5768.914996	87.5	0.9318252000002758	2	0
195.43817495409075	0.8818626000002041	2	49	5769.674652	100	0.8129203999997117	1	0
196.32003755409096	0.8894143999996231	2	49	5770.804328	75	1.0607336999992185	2	0
197.20945195409058	0.9005285000002914	2	49	5771.469349	100	0.8363405000000057	1	0
198.10998045409087	0.8766196999995373	2	49	5772.449512	87.5	0.9159747	2	0
198.9866001540904	0.8809462999997777	2	49	5773.158866	93.75	0.7487096000004385	1	0
199.8675464540902	0.8794320000006337	2	49	5773.924294	81.25	0.6331911000006585	1	0
200.74697845409082	0.8897090999998909	2	49	5774.804992	75	0.6344573999995191	1	0
201.6366875540907	0.8746481999996831	2	49	5775.896936	100	0.8366917000003014	1	0
202.5113357540904	0.8991397999998298	2	49	5776.765396	100	0.8305031999998391	1	0
203.41047555409023	0.8671518999999535	2	49	5778.060209	56.25	1.2261766999999963	2	0
204.27762745409018	0.8748421000000235	2	49	5778.472133	93.75	0.7709486	1	0
205.1524695540902	0.8763020000005781	2	49	5779.376366	100	0.8003398000000743	1	0
206.02877155409078	0.8808514000002106	1	0	0	0	0	0	0
206.909623	0.9164314999998169	2	49	5781.324457	87.5	0.9912770000000819	2	0
207.8260544540908	0.8683472000002439	2	49	5782.040426	100	0.7908152999998492	1	0
208.69440165409105	0.8935143999997308	2	49	5783.052843	87.5	0.9348842999997942	2	0
209.58791605409078	0.8755322999995769	2	49	5783.893112	93.75	0.8816391999998814	2	0
210.46344835409036	0.8709478999999192	2	49	5784.699389	100	0.8123844000001554	1	0
211.33439625409028	0.8695981000000756	2	49	5785.577152	100	0.8191992000001846	1	0
212.20399435409036	0.8908105999998952	2	49	5786.485777	100	0.8582261000001381	1	0
213.09480495409025	0.8723645000000033	2	49	5787.352094	100	0.8337324000003719	1	0
213.96716945409025	0.8853609000007054	2	49	5788.292307	93.75	0.9015813000005437	2	0
214.85253035409096	0.8806838000000425	2	49	5789.108379	100	0.8322918999992908	1	0
215.7332142	0.8871030999998766	2	49	5789.975196	100	0.8184255999995003	1	0
216.62031725409088	0.9096380000000863	2	49	5790.880756	100	0.8368820999994568	1	0
217.52995525409096	0.8493257000000085	2	49	5791.838062	87.5	0.8845502999993187	2	0
218.37928095409097	0.8977313999994294	2	49	5792.617706	93.75	0.8148683999997957	1	0
219.2770123540904	0.8746523999998317	2	49	5793.512946	93.75	0.8123767	1	0
220.15166475409023	0.8548851000005016	2	49	5794.392503	100	0.8172813000001042	1	0
221.00654985409074	0.8748710999998366	2	49	5795.389786	81.25	0.9596793999999136	2	0
221.88142095409057	0.8832025000001522	2	49	5796.109042	93.75	0.8040644	1	0
222.76462345409072	0.8747495999996318	2	0	0	0	0	0	0
223.63937305409036	0.8759952999998859	2	49	5797.641171	68.75	0.5782411000000138	1	0
224.51536835409024	0.8660966000006738	2	49	5798.783853	93.75	0.8449278000007325	2	0
225.38146495409092	0.8845889999993233	2	49	5799.617751	100	0.8127297000000908	1	0
226.26605395409024	0.8947311000001719	2	49	5800.512299	100	0.8226884000005157	1	0
227.1607850540904	0.8995318000006591	1	0	0	0	0	0	0
228.06031685409107	0.8789520999998786	2	49	5802.354085	100	0.8702114999996411	1	0
228.93926895409095	0.9080510999992839	2	49	5803.199436	100	0.8366108000000168	1	0
229.84732005409023	0.8628029000001334	2	49	5804.107608	93.75	0.8367315000004965	2	0
230.71012295409037	0.8556613999999172	2	49	5804.901288	93.75	0.7676089000005959	1	0
231.56578435409028	0.8837545000005775	1	0	0	0	0	0	0
232.44953885409086	0.8650477999999566	2	49	5806.716479	100	0.8433835999994699	1	0
233.31458665409082	0.8785814000002574	2	49	5807.540359	100	0.8022153000001708	1	0
234.19316805409107	0.9229016999997839	2	49	5808.514062	93.75	0.8973368999995728	2	0
235.11606975409086	0.8722219999999652	2	49	5809.401838	93.75	0.8622115999996822	2	0
235.98829175409082	0.8495299999995041	2	49	5810.23458	93.75	0.8227311999999074	2	0
236.83782175409033	0.9490202	2	49	5811.071138	93.75	0.8097597000005408	1	0
237.78684195409096	0.8832941999999093	2	49	5812.070347	93.75	0.8599479999993491	2	0
238.67013615409087	0.8795141000000513	2	49	5812.888426	100	0.7947334	1	0
239.54965025409092	0.8771225000000413	2	49	5813.879565	87.5	0.9063582999997379	2	0
240.42677275409096	0.9190871000000698	1	49	5814.795199	93.75	0.9448698999995031	2	0
241.34585985409103	0.8684696000000258	1	0	0	0	0	0	0
242.21432945409106	0.8990983	2	49	5816.482852	100	0.8449657	1	0
243.11342775409048	0.8637436	2	49	5817.386801	100	0.8498171000001093	1	0
243.9771713540904	0.8676201	2	49	5818.215289	100	0.8145605999998224	1	0
244.84479145409023	0.8787669000003007	2	49	5819.079475	100	0.8111274000002595	1	0
245.72355835409053	0.8744130000004589	2	49	5819.945125	100	0.7980100000004313	1	0
246.5979714	0.8653335	2	49	5820.853268	100	0.8317397	1	0
247.4633048540909	0.8889818999996351	2	49	5821.679466	93.75	0.7926047999999355	1	0
248.35228675409053	0.8891260999998849	2	49	5822.515537	87.5	0.7396938000001683	1	0
249.2414128540904	0.8721083000000363	2	49	5823.669174	75	1.0042050000001836	2	0
250.11352115409045	0.8784961000001204	2	49	5824.310931	93.75	0.7738534000000072	1	0
250.99201725409057	0.8996284	2	49	5825.262057	100	0.8464826999997968	1	0
251.8916457	0.8997012999998333	2	49	5826.08488	87.5	0.7696774999994886	1	0
252.79134695409084	0.8716753999997309	2	49	5827.034726	100	0.8198228000001109	1	0
253.66302235409057	0.8727314999996452	2	49	5827.940722	100	0.8541434999997364	1	0
254.53575385409022	0.8811337000006461	2	49	5828.806439	100	0.8471285000005082	1	0
255.41688755409086	0.8614259999994829	2	49	5829.721946	93.75	0.8815021000000343	2	0
256.27831355409035	0.8729627000002438	1	0	0	0	0	0	0
257.1512762540906	0.8899756999999227	2	49	5831.393212	93.75	0.8183796000002985	1	0
258.0412519540905	0.8732053000003361	2	49	5832.275991	100	0.8111822999999276	1	0
258.91445725409085	0.8819137	2	49	5833.152719	100	0.8147051999994801	1	0
259.7963709540909	0.8637858	1	0	0	0	0	0	0
260.6601567540911	0.8570258	2	49	5834.762593	87.5	0.6788793999994596	1	0
261.51718255409105	0.8487537999999404	2	49	5835.60474	81.25	0.6640004999999292	1	0
262.3659364	0.8735788999993019	2	49	5836.591478	93.75	0.8019848999992973	1	0
263.2395152540903	0.8901660999999876	2	49	5837.450227	93.75	0.7871547000004284	1	0
264.1296813540903	0.8779278000001796	2	49	5838.305722	93.75	0.7524843000001056	1	0
265.00760915409046	0.8849859000001743	2	49	5839.191195	93.75	0.7600293000004967	1	0
265.89259505409063	0.8667806000003111	2	49	5840.258819	87.5	0.9426671999999598	2	0
266.75937565409095	0.9060540999998921	1	49	5840.990508	100	0.8075757999995403	1	0
267.66542975409084	0.8848966999994445	2	49	5841.910973	93.75	0.8219868999995015	1	0
268.5503264540903	0.8456427999999505	2	49	5842.697781	87.5	0.7238981999998941	1	0
269.39596925409023	0.8591399000006277	2	49	5843.645129	100	0.8256028000005244	1	0
270.25510915409086	0.8460887999999613	2	49	5844.466055	100	0.7873896999999488	1	0
271.1011979540908	0.9027154	1	49	5845.359708	93.75	0.8349539000000732	1	0
272.0039133540904	0.8600366000000577	2	49	5846.212661	93.75	0.7851908000002368	1	0
272.86394995409046	0.8677029999998922	2	49	5847.13845	93.75	0.8509432000000743	2	0
273.73165295409035	0.8473520000006829	2	49	5847.93737	100	0.7821602000003622	1	0
274.57900495409103	0.8673316999993403	1	0	0	0	0	0	0
275.4463366540904	0.8474457000002076	2	49	5849.637536	100	0.7676423000002615	1	0
276.2937823540906	0.8436803000004147	2	49	5850.579331	93.75	0.8619916999996349	2	0
277.1374627	0.8560506999992867	2	49	5851.404067	93.75	0.8430473999997048	2	0
277.9935133540903	0.8534974000003785	2	49	5852.186707	93.75	0.7696372000000338	1	0
278.84701075409066	0.8497829999996611	2	49	5852.96383	87.5	0.6932624999999462	1	0
279.6967937540903	0.8568470999998681	2	49	5853.844384	87.5	0.7240339999998469	1	0
280.5536408540902	0.8587938000000577	2	49	5854.706767	93.75	0.7295699000005698	1	0
281.41243465409025	0.8499879000000874	2	49	5855.603109	100	0.7671174000006431	1	0
282.26242255409034	0.8805913000005603	2	49	5856.479302	93.75	0.7933233000003383	1	0
283.1430138540909	0.8689328999998907	2	49	5857.357867	100	0.7912969999997586	1	0
284.0119467540908	0.8638012000001254	2	49	5858.212917	100	0.7774134	1	0
284.8757479540909	0.8527542000001631	2	49	5859.136675	93.75	0.8373699999992823	2	0
285.7285021540911	0.8469251999995322	2	49	5860.043602	93.75	0.8915432999992845	2	0
286.5754273540906	0.8369183000004341	2	49	5860.900503	87.5	0.9015188000003036	2	0
287.41234565409104	0.8648775999999998	2	49	5861.689591	93.75	0.8536889999995765	2	0
288.27722325409104	0.8531861999999819	2	49	5862.758968	68.75	1.0581879999999728	2	0
289.1304095	0.8529173999995692	1	0	0	0	0	0	0
289.9833268540906	0.8544895000004544	1	0	0	0	0	0	0
290.83781635409105	0.8454593999995268	2	49	5865.150917	87.5	0.8895439999996597	2	0
291.6832757540906	0.8551256999999168	2	49	5866.026404	87.5	0.9195712999999159	2	0
292.5384014540905	0.852575	1	0	0	0	0	0	0
293.3909764540904	0.8712501999998494	2	49	5867.570268	87.5	0.7557352000003448	1	0
294.2622266540902	0.8663894000001164	2	49	5868.567168	93.75	0.8813846000002741	2	0
295.12861605409034	0.8601751000005606	2	49	5869.345857	100	0.7936840000002121	1	0
295.9887911540909	0.8362993000000642	1	49	5870.190069	100	0.7777208999996219	1	0
296.82509045409097	0.8621518999998443	1	0	0	0	0	0	0
297.6872423540908	0.8690743999995902	1	0	0	0	0	0	0
298.5563167540904	0.8582473000005848	2	49	5872.873572	87.5	0.8936982000004718	2	0
299.4145641	0.8615314999997281	1	0	0	0	0	0	0
300.2760955540907	0.8659261000002516	2	49	5874.40839	87.5	0.7087374000002455	1	0
301.14202165409097	0.8883853999996063	1	0	0	0	0	0	0
302.0304070540906	0.8493146999999226	2	49	5876.306446	93.75	0.8524823999996443	2	0
302.8797217540905	0.8619179	2	49	5877.351949	75	1.048670299999685	2	0
303.74163965409025	0.8621639000002688	2	49	5878.253055	68.75	1.0878587000006519	2	0
304.6038035540905	0.8812613000000056	2	49	5878.877478	93.75	0.8501181999999972	2	0
305.4850648540905	0.8459310999996887	2	49	5879.596315	87.5	0.6876934000001711	1	0
306.3309959540902	0.8547945000000254	2	49	5880.551344	100	0.7967916	1	0
307.18579045409024	0.87643	2	49	5881.478139	93.75	0.8687918000005084	2	0
308.0622204540905	0.8923372	2	49	5882.411538	93.75	0.9257611000002726	2	0
308.9545576540904	0.8793333000003258	2	49	5883.310228	93.75	0.9321133000003101	2	0
309.83389095409075	0.8943381999997655	1	0	0	0	0	0	0
310.7282291540905	0.8609904000004462	2	49	5885.039486	93.75	0.8877005000003919	2	0
311.58921955409096	0.8671426999999312	2	49	5885.90894	87.5	0.8961640999996234	2	0
312.4563622540909	0.8875011000000086	2	49	5887.041814	62.5	1.1618953999995938	2	0
313.3438633540909	0.8702700999992885	2	0	0	0	0	0	0
314.2141334540902	0.8735112000003937	2	49	5888.304239	81.25	0.6665485000003173	1	0
315.0876446540906	0.8784203000004709	2	49	5889.216571	87.5	0.7053697999999713	1	0
315.96606495409105	0.8497749999996813	1	49	5890.219583	100	0.8299613999997746	1	0
316.81583995409073	0.8682176000002073	2	49	5890.951985	87.5	0.7125888999999006	1	0
317.68405755409094	0.8954217000000426	2	49	5892.101865	81.25	0.9942510999999286	2	0
318.5794793	0.8605309999993551	2	49	5893.006506	75	1.003469999999652	2	0
319.44001025409034	0.8444255000003977	2	49	5893.802019	81.25	0.9384519	2	0
320.28443575409074	0.8917936999996527	2	49	5894.643927	87.5	0.9359342999996443	2	0
321.1762294540904	0.8630241999999271	2	49	5895.629879	75	1.0300929000004544	2	0
322.0392536540903	0.8753219000000172	2	49	5896.283894	100	0.8210839000003034	1	0
322.91457555409033	0.8889804999998887	2	49	5897.209923	100	0.8717911000003369	1	0
323.8035560540902	0.8961709000004703	2	49	5897.973848	87.5	0.7467349000007744	1	0
324.6997269540907	0.8801370000001043	2	49	5899.023832	93.75	0.9005489000001035	2	0
325.5798639540908	0.881084	2	49	5899.718822	87.5	0.7154018000001088	1	0
326.46094795409044	0.8587783000002673	2	49	5900.525138	81.25	0.6406334000002971	1	0
327.3197262540907	0.8844234999996843	2	49	5901.504007	93.75	0.7607239999997546	1	0
328.2041497540904	0.8685928000004424	2	49	5902.432015	100	0.8043084999999337	1	0
329.07274255409084	0.9030852	2	49	5903.293314	93.75	0.7970150999999532	1	0
329.97582775409046	0.8975505	2	49	5904.454605	75	1.0552211000003808	2	0
330.8733782540903	0.8688252000001739	2	49	5905.118333	100	0.8213979000001927	1	0
331.7422034540905	0.8807409000000916	2	49	5905.943179	93.75	0.7774185999996917	1	0
332.6229443540906	0.8895554	2	49	5906.845846	93.75	0.7993450000003577	1	0
333.51249975409064	0.8640980999998646	2	49	5907.690881	93.75	0.7548249000001306	1	0
334.3765978540905	0.8868794999998499	2	49	5908.549485	87.5	0.7493304999998145	1	0
335.26347735409036	0.8735396000001856	1	49	5909.605828	87.5	0.9187941000000137	2	0
336.13701695409054	0.8813742000002094	2	49	5910.309564	93.75	0.7489904000003662	1	0
337.01839115409075	0.8840787999997701	2	49	5911.149374	87.5	0.7074265999999625	1	0
337.9024699540905	0.8817583000000013	2	49	5912.115573	93.75	0.7895465999999942	1	0
338.7842282540905	0.8713741999999911	2	49	5913.059277	93.75	0.8514918999999281	2	0
339.6556024540905	0.8761283000003459	2	49	5913.948435	93.75	0.8692756999998892	2	0
340.53173075409086	0.8681523	2	49	5914.890441	87.5	0.9351534999996147	2	0
341.3998830540904	0.8892946000005395	2	49	5915.644747	100	0.8213075	1	0
342.28917765409096	0.8834456999993563	2	0	0	0	0	0	0
343.1726233540903	0.8811316	2	49	5917.494121	93.75	0.8979405999998562	2	0
344.05375495409044	0.8918475999998918	2	49	5918.339738	100	0.8624261000004481	1	0
344.9456025540903	0.8584031000000323	2	49	5919.232886	93.75	0.8637264	2	0
345.80400565409036	0.8758495000001858	2	49	5920.095747	93.75	0.8681848	2	0
346.67985515409055	0.8793328000001566	2	49	5921.009091	87.5	0.9056793999998263	2	0
347.5591879540907	0.8968924000000698	2	0	0	0	0	0	0
348.4560803540908	0.8641402000002927	2	49	5922.593589	87.5	0.7139519	1	0
349.32022055409107	0.8640475999991395	2	49	5923.353056	75	0.6092788999994809	1	0
350.1842681540902	0.8452126000001954	2	49	5924.235656	81.25	0.6278309000008448	1	0
351.0294807540904	0.8558307000002969	2	49	5925.123518	81.25	0.6704809	1	0
351.8853114540907	0.8708971999994901	2	49	5926.122289	100	0.8134208999999828	1	0
352.7562086540902	0.9020809000003283	2	49	5926.996555	93.75	0.8167900000007648	1	0
353.6582895540905	0.8642132000004494	2	49	5927.850868	93.75	0.7690215000002354	1	0
354.52250275409097	0.8958055999992212	2	49	5928.754637	93.75	0.8085779999992155	1	0
355.4183083540902	0.8713733	2	49	5929.63436	100	0.7924949000007473	1	0
356.2896816540906	0.8799824999996417	2	49	5930.619615	93.75	0.9063771000000997	2	0
357.16966415409024	0.8670750000001135	2	49	5931.44555	100	0.8523291999999856	1	0
358.03673915409036	0.8661279000007198	1	0	0	0	0	0	0
358.9028670540911	0.8727572999996482	2	49	5933.059404	87.5	0.7329802999993262	1	0
359.7756243540907	0.8793643999997585	2	49	5934.07223	93.75	0.8730490999996618	2	0
360.6549887540905	0.8766719000004741	2	49	5935.084691	81.25	1.006145800000013	2	0
361.53166065409096	0.876736	2	49	5935.725012	93.75	0.7697947999995449	1	0
362.4083966540902	0.8846664	2	49	5936.638631	100	0.8066775000006601	1	0
363.29306305409045	0.8952368000000206	2	49	5937.581153	100	0.8645335999999588	1	0
364.1882998540905	0.8697884000002887	2	49	5938.382579	93.75	0.7707221000000573	1	0
365.05808825409076	0.8467117000000144	1	49	5939.21336	93.75	0.7317155999999159	1	0
365.9047999540908	0.8549646999999823	2	49	5940.161186	100	0.8328298999995241	1	0
366.75976465409076	0.8398135999996157	1	0	0	0	0	0	0
367.5995782540904	0.8419627000002947	2	49	5941.826102	100	0.8029673000000912	1	0
368.44154095409067	0.8668163000002096	2	49	5942.622368	93.75	0.7572706000000835	1	0
369.3083572540909	0.8442316999999093	1	0	0	0	0	0	0
370.1525889540908	0.8439668999999412	2	49	5944.231446	87.5	0.6553007000002253	1	0
370.99655585409073	0.8485276	2	49	5945.249482	93.75	0.8293697999997676	2	0
371.84508345409085	0.8812276999997266	1	0	0	0	0	0	0
372.7263111540906	0.8461207000000286	2	49	5946.97654	93.75	0.8266723	2	0
373.5724318540906	0.8512929999997141	1	0	0	0	0	0	0
374.4237248540903	0.8504148000001805	2	49	5948.694832	93.75	0.8475502000001143	2	0
375.2741396540905	0.8483550999999352	1	0	0	0	0	0	0
376.12249475409044	0.8392635999998674	2	49	5950.224518	87.5	0.6784667000001718	1	0
376.9617583540903	0.8440116000001581	2	49	5951.265642	87.5	0.8803274000001693	2	0
377.80576995409047	0.8912124999997104	2	0	0	0	0	0	0
378.6969824540902	0.8432620000003226	2	49	5952.836799	87.5	0.7162596000007397	1	0
379.5402444540905	0.8587431000005381	2	49	5953.776514	100	0.8127126999997927	1	0
380.39898755409104	0.8432907999995223	2	49	5954.801657	75	0.9791124999992462	2	0
381.24227835409056	0.8428631	2	49	5955.480537	100	0.8147017000001142	1	0
382.08514145409026	0.8466426000004503	1	0	0	0	0	0	0
382.9317840540907	0.8589813999997205	2	49	5957.152684	100	0.7973433999995905	1	0
383.79076545409043	0.8552335	2	49	5958.120138	87.5	0.9058156000000963	2	0
384.6459989540908	0.8442348999997193	2	49	5959.009667	81.25	0.940111	2	0
385.49023385409055	0.8384422999997696	2	0	0	0	0	0	0
386.3286761540903	0.8485809000003428	2	49	5960.416284	81.25	0.6640514999999141	1	0
387.17725705409066	0.8456556000001001	2	49	5961.284113	87.5	0.683299	1	0
388.02291265409076	0.8805547000001752	2	0	0	0	0	0	0
388.90346735409094	0.8440925999993851	1	49	5963.144316	93.75	0.8172920999995767	2	0
389.7475599540903	0.8711100000000442	1	0	0	0	0	0	0
390.61866995409036	0.8525975	2	49	5964.753701	87.5	0.7114744999998948	1	0
391.4712674540906	0.8377627999998367	1	0	0	0	0	0	0
392.30903025409043	0.8519028999999136	2	49	5966.645975	87.5	0.9133879000000888	2	0
393.16093315409034	0.8628079000000071	2	49	5967.397973	100	0.8134829999999056	1	0
394.02374105409035	0.8404571999999462	2	49	5968.429611	75	0.9823129000005792	2	0
394.8641982540903	0.8572797000006176	2	49	5969.190152	87.5	0.9023976000007679	2	0
395.7214779540909	0.8422722999994221	2	49	5969.976377	93.75	0.8313420999993468	2	0
396.56375025409034	0.8530553000000509	2	49	5970.877137	87.5	0.8898302000006879	2	0
397.4168055540904	0.8439605000003212	2	49	5971.777632	81.25	0.9372702000000572	2	0
398.2607660540907	0.8613096999997651	2	49	5972.674384	81.25	0.9900612000001274	2	0
399.1220757540905	0.8475386000000071	2	49	5973.576659	75	1.0310263999999734	2	0
399.9696143540905	0.8462965999997323	2	49	5974.358305	81.25	0.9651335999997173	2	0
400.8159109540902	0.8427539	2	49	5975.216145	81.25	0.9766778000002887	2	0
401.6586648540906	0.8476343000002089	2	49	5976.100344	75	1.0181227000002764	2	0
402.5062991540908	0.8454469999996945	2	49	5977.066313	62.5	1.1364567999999053	2	0
403.3517461540905	0.8563371000000188	2	49	5977.800473	75	1.0251699000000372	2	0
404.2080832540905	0.8487794000002395	2	49	5978.464469	93.75	0.8328290999997989	2	0
405.05686265409076	0.8474596999994901	2	49	5979.470394	81.25	0.9899747999997999	2	0
405.90432235409025	0.8545194000007541	1	0	0	0	0	0	0
406.7588418	0.8437274	1	0	0	0	0	0	0
407.6025691540908	0.8677356999996846	2	49	5981.898916	93.75	0.8727897999997367	2	0
408.4703048540905	0.8722391999999672	2	49	5982.710443	100	0.8165819000005285	1	0
409.34254405409047	0.8473825999999463	2	49	5983.663633	87.5	0.8975324000002729	2	0
410.1899266540904	0.841603	2	49	5984.585426	81.25	0.9719432000001689	2	0
411.03152965409026	0.8419908000005307	2	49	5985.427225	81.25	0.9721383000005517	2	0
411.8735204540908	0.8453916999997091	2	49	5986.433049	62.5	1.1359723999994458	2	0
412.7189121540905	0.8380331999996997	2	49	5987.016718	93.75	0.8742487999998048	2	0
413.5569453540902	0.8575197000000117	1	0	0	0	0	0	0
414.4144650540902	0.8480220999999801	2	49	5988.787698	81.25	0.9496768	2	0
415.2624871540902	0.8443602000006649	2	49	5989.59007	87.5	0.9040258000004542	2	0
416.10684735409086	0.8576082999998107	2	49	5990.411003	93.75	0.8805987999994613	2	0
416.96445565409067	0.8478755999994974	2	49	5991.193996	100	0.8059841000003871	1	0
417.81233125409017	0.8433583000005456	2	49	5992.213658	81.25	0.9777701000002708	2	0
418.6556895540907	0.8403740000003381	2	49	5993.030965	81.25	0.9517183999996632	2	0
419.49606355409105	0.8432628999998997	1	0	0	0	0	0	0
420.33932645409095	0.8738450999999259	2	49	5994.751584	81.25	0.9887014	2	0
421.2131715540909	0.8642844	1	0	0	0	0	0	0
422.0774559540905	0.8584229999996751	2	49	5996.326962	100	0.8259494000003542	1	0
422.9358789540902	0.8453007000007347	2	49	5997.235414	93.75	0.8759784000003492	2	0
423.7811796540909	0.8533776999993279	2	49	5998.032455	100	0.8277184	1	0
424.63455735409025	0.8416364000004251	2	49	5998.919893	93.75	0.8617786000004344	2	0
425.4761937540907	0.8506780999996408	2	49	5999.794105	87.5	0.8943541999997251	2	0
426.3268718540903	0.8526010000005044	2	49	6000.611513	93.75	0.8610845000002882	2	0
427.1794728540908	0.8578316	2	49	6001.42572	100	0.8226909	1	0
428.0373044540902	0.8510754000008092	2	49	6002.398907	81.25	0.9380457000006572	2	0
428.8883799	0.8675046999996994	2	49	6003.165568	93.75	0.8536316999998235	2	0
429.7558845540907	0.8483682999994926	2	49	6004.157012	75	0.9775705000001835	2	0
430.6042528540902	0.8455837999999858	2	49	6005.002948	81.25	0.9751382000004014	2	0
431.4498366540902	0.8557287000003271	2	49	6005.803769	87.5	0.9303762000008646	2	0
432.3055653540905	0.8397713000003932	2	49	6006.600627	93.75	0.8715054000003875	2	0
433.1453366540909	0.8596595999997589	2	49	6007.426313	93.75	0.8574195999999574	2	0
434.00499625409066	0.8496607999995831	2	49	6008.26281	100	0.8342572999999902	1	0
434.85465705409024	0.8410000000003492	2	49	6009.104881	100	0.8266673000007358	1	0
435.6956570540906	0.8391697999995813	2	49	6009.982011	87.5	0.8627976999996463	2	0
436.53482685409017	0.8528060000007827	2	49	6010.871902	87.5	0.9135184	2	0
437.38763285409095	0.8566577999999936	2	49	6011.610356	100	0.7991661999994903	1	0
438.24429065409095	0.8542029999998704	2	49	6012.473357	100	0.8055101999998442	1	0
439.0984936540908	0.8443098999996437	2	49	6013.297701	100	0.7756511999996292	1	0
439.94280355409046	0.8349970999997822	2	49	6014.069652	93.75	0.7032921999998507	1	0
440.77780065409024	0.8491993000006914	2	49	6014.958568	93.75	0.7572104999999283	1	0
441.62699995409093	0.8658280999998169	2	49	6015.935645	93.75	0.8850887999997212	2	0
442.49282805409075	0.8506120000001829	2	49	6016.794386	87.5	0.8780012999995961	2	0
443.34344005409093	0.8772281000001385	2	49	6017.632984	93.75	0.8659877999998571	2	0
444.2206681540911	0.8562918999996327	2	49	6018.396617	93.75	0.7523918999995658	1	0
445.0769600540907	0.8508049000001847	2	49	6019.298852	100	0.7983354999996664	1	0
445.9277649540909	0.8393161999993026	2	49	6020.143953	100	0.7926313999996637	1	0
446.7670811540902	0.8435384000003978	2	49	6021.057692	93.75	0.8670547000001534	2	0
447.6106195540906	0.8394111999996312	2	49	6021.834176	100	0.8000000000001819	1	0
448.4500307540902	0.8664838000004238	2	49	6022.728746	100	0.8551586000003226	1	0
449.31651455409065	0.8519680999997945	2	49	6023.599269	93.75	0.8591980999999578	2	0
450.16848265409044	0.8634157000005871	2	49	6024.441563	93.75	0.8495240000002013	2	0
451.0318984	0.8458245	2	49	6025.248592	100	0.7931371999993644	1	0
451.8777228540903	0.8389284000004409	2	49	6026.074876	100	0.7735968000006324	1	0
452.7166512540907	0.8579461999997875	1	0	0	0	0	0	0
453.5745974540905	0.8732046	2	49	6027.857759	100	0.8596054	1	0
454.44780205409097	0.8473347999997713	2	49	6028.708895	100	0.8375364999992598	1	0
455.29513685409074	0.8395058999994944	2	49	6029.78738	68.75	1.0686869000001025	2	0
456.13464275409024	0.8442850000001272	2	49	6030.395773	93.75	0.8375740000001315	2	0
456.97892775409036	0.8634330000004411	2	49	6031.20813	100	0.8056454000006852	1	0
457.8423607540908	0.8367078999999649	2	49	6032.019092	93.75	0.7531742999999551	1	0
458.67906865409077	0.8611592999995992	2	49	6032.84666	87.5	0.7440348000000085	1	0
459.54022795409037	0.8475447000000713	1	49	6033.727901	100	0.7641162999998414	1	0
460.38777265409044	0.8366852999997718	2	49	6034.576215	100	0.7648853000000599	1	0
461.2244579540902	0.8435421000003771	2	49	6035.41123	100	0.7632152	1	0
462.0680000540906	0.8354044999996404	2	49	6036.20471	87.5	0.7131532000003062	1	0
462.90340455409023	0.8420146000007662	2	49	6037.057106	93.75	0.7301446999999825	1	0
463.7454192	0.8512100999996619	2	49	6037.971112	100	0.8021358999994845	1	0
464.59662925409066	0.8389409999999771	2	49	6038.835699	100	0.8155132000001686	1	0
465.43557025409063	0.8476184999999532	2	49	6039.700261	100	0.8411340000002383	1	0
466.2831887540906	0.8415574000000561	2	49	6040.534547	93.75	0.8278013999997711	2	0
467.12474615409064	0.8413676999998643	2	49	6041.349011	100	0.8007084000000759	1	0
467.9661138540905	0.8451099000003524	2	49	6042.288469	87.5	0.8987981999998738	2	0
468.81122375409086	0.8509546	2	49	6043.214248	81.25	0.9794679999995424	2	0
469.66217835409043	0.8428295000003345	2	49	6043.833705	93.75	0.7479702000000543	1	0
470.50500785409076	0.8389897	2	49	6044.68373	93.75	0.7551658000002135	1	0
471.3439975540905	0.8435614999998506	2	49	6045.550704	100	0.7831496999997398	1	0
472.18755905409034	0.8406714000002466	2	49	6046.386652	93.75	0.7755364000004192	1	0
473.0282304540906	0.8428671000001486	2	49	6047.261114	100	0.8093266	1	0
473.87109755409074	0.8420995999995284	2	49	6048.141592	93.75	0.8469373999996606	2	0
474.71319715409027	0.8363360000003013	2	49	6049.107669	81.25	0.9709156000008079	2	0
475.54953315409057	0.8791546000002199	2	49	6049.863418	93.75	0.8903283999998166	2	0
476.4286877540908	0.8358287999999447	2	49	6050.629732	100	0.7774878000000172	1	0
477.26451655409073	0.8428532999996605	2	49	6051.53884	93.75	0.8507666999994399	2	0
478.1073698540904	0.8489093	2	49	6052.403241	93.75	0.8723146000002089	2	0
478.9562791540902	0.8546435000007477	1	0	0	0	0	0	0
479.8109227	0.8531612999995559	2	49	6054.142933	87.5	0.9084542000000511	2	0
480.66408395409053	0.8366868000002796	2	49	6054.890405	100	0.8027644	1	0
481.5007707540908	0.8600061999995887	2	49	6055.812252	93.75	0.8879244999998264	2	0
482.3607769540904	0.8381217000005563	2	49	6056.609709	93.75	0.8253752000000532	2	0
483.19889865409095	0.8390669000000344	2	49	6057.412902	100	0.7904470999992554	1	0
484.0379656	0.8581231999996817	2	49	6058.267774	100	0.8062516	1	0
484.89608875409067	0.8409026999997877	2	49	6059.219907	87.5	0.9002616999996462	2	0
485.73699145409046	0.8381670999997368	2	49	6060.017254	93.75	0.8567058999997244	2	0
486.5751585540902	0.8565339000006134	2	49	6060.775831	93.75	0.7771157000006497	1	0
487.4316924540908	0.8416894000001776	2	49	6061.690952	93.75	0.8357028000000355	2	0
488.2733819	0.8455598999998983	2	49	6062.520037	100	0.8230985000000146	1	0
489.1189417540909	0.8398815999998988	2	49	6063.440583	87.5	0.8980843999997887	2	0
489.9588233540908	0.8380767999997261	1	0	0	0	0	0	0
490.7969001540905	0.8379449	2	49	6064.903793	87.5	0.6833358	1	0
491.6348450540909	0.8431090999993103	2	49	6066.090285	75	1.0318837999993775	2	0
492.4779541540902	0.8459838000007949	2	49	6066.764564	93.75	0.8630534000003536	2	0
493.323938	0.8384517999993477	2	49	6067.581878	93.75	0.8343832000000475	2	0
494.1623897540903	0.8717519	2	49	6068.597191	81.25	1.0112445	2	0
495.0341416540905	0.8429025000004913	2	49	6069.550269	62.5	1.0925711999998384	2	0
495.8770442	0.8365045999998983	2	49	6070.15373	93.75	0.8531288999993194	2	0
496.7135487540909	0.8388770999999906	1	49	6071.07702	81.25	0.9399150999997801	2	0
497.55242585409087	0.8406666999999288	2	49	6071.972487	75	0.9965046999996048	2	0
498.3930925540908	0.8430324000000837	2	49	6072.898352	68.75	1.0817028	2	0
499.2361249540909	0.8495322	2	49	6073.687704	75	1.028022399999827	2	0
500.08565715409077	0.8440418000000136	2	49	6074.412919	87.5	0.9037055999997392	2	0
500.9296989540908	0.8409974	2	49	6075.25566	87.5	0.9024048	2	0
501.77069635409043	0.8566538000004584	2	49	6076.142392	81.25	0.9481394000004002	2	0
502.6273501540909	0.8359299	1	0	0	0	0	0	0
503.4632800540903	0.8374665999999706	2	49	6077.63726	93.75	0.7504232999999658	1	0
504.3007466540903	0.8473422000006394	2	49	6078.667494	81.25	0.9431911000001492	2	0
505.14808885409093	0.8476322999995318	2	49	6079.518188	81.25	0.9465430000000197	2	0
505.99572115409046	0.8623110999997152	2	49	6080.407923	81.25	0.9886449000005086	2	0
506.8580322540902	0.8650807000003624	2	49	6081.138981	93.75	0.8573919000000387	2	0
507.72311295409054	0.8362906000002113	2	49	6081.864458	87.5	0.7177881999996316	1	0
508.55940355409075	0.8403539000000819	2	49	6082.837615	93.75	0.8546550999999454	2	0
509.39975745409083	0.8489743	2	49	6083.585203	93.75	0.7618887999997241	1	0
510.24873175409084	0.8391071999994892	2	49	6084.600054	87.5	0.9277654	2	0
511.08783895409033	0.8385760000001028	2	49	6085.260153	93.75	0.7487578999998732	1	0
511.92641495409043	0.8405357000001459	2	49	6086.0027	87.5	0.6527282	1	0
512.7669506540906	0.8368921999999657	2	49	6086.857068	81.25	0.6665603999999803	1	0
513.6038428540905	0.8381896999999299	2	49	6087.726794	87.5	0.6993941999999151	1	0
514.4420325540905	0.8455155999999988	2	49	6088.608879	93.75	0.7432896999998775	1	0
515.2875481540905	0.8391056999998909	1	0	0	0	0	0	0
516.1266538540904	0.8442205000001195	2	49	6090.434736	87.5	0.8845258999999714	2	0
516.9708743540905	0.836859	2	49	6091.312874	81.25	0.9184427999998661	2	0
517.8077333540905	0.8389030999996976	2	49	6092.059631	100	0.8283406000000468	1	0
518.6466364540902	0.8381906000004165	2	49	6093.056524	75	0.9863309000002118	2	0
519.4848270540906	0.8396923999998762	2	49	6093.879393	81.25	0.9710096999997404	2	0
520.3245194540905	0.8407228000005489	2	49	6094.684769	81.25	0.9366931000004115	2	0
521.1652423	0.8447215999995024	2	49	6095.492547	87.5	0.9037478000000192	2	0
522.0099638540905	0.8407500000002983	2	49	6096.220712	100	0.7871918000000733	1	0
522.8507138540908	0.8456818999993629	1	0	0	0	0	0	0
523.6963957540902	0.8508884000002581	1	49	6097.805048	87.5	0.6850960000001578	1	0
524.5472841540904	0.8467123000000356	2	49	6098.888868	87.5	0.9180272000003242	2	0
525.3939964540905	0.8372950000002675	1	0	0	0	0	0	0
526.2312914540908	0.8400603999998566	2	49	6100.53715	87.5	0.8823022999995374	2	0
527.0713518540906	0.8399695999996766	2	49	6101.325416	100	0.8305073000001357	1	0
527.9113214540903	0.8756163000007291	2	49	6102.235657	93.75	0.9007793999999194	2	0
528.7869378	0.8390461	2	49	6103.110913	87.5	0.9004189999996015	2	0
529.6259838540909	0.8603118999999424	2	49	6103.938374	93.75	0.8888339	2	0
530.4862957540909	0.8480837999995856	2	49	6104.81649	87.5	0.9066373	2	0
531.3343795540904	0.8386411999999837	2	49	6105.680855	87.5	0.9229188999997859	2	0
532.1730207540904	0.8536622000001444	2	49	6106.51853	87.5	0.9219524000000092	2	0
533.0266829540906	0.8378645000002507	2	49	6107.260298	100	0.8100585000001956	1	0
533.8645474540908	0.8488164000000324	2	49	6108.104057	100	0.8159528999995018	1	0
534.7133638540909	0.8516534	2	49	6108.913449	93.75	0.7765283999997337	1	0
535.5650172540909	0.8423396999996839	2	49	6109.772264	100	0.7836903999996139	1	0
536.4073569540906	0.8390369999997347	2	49	6110.581159	93.75	0.7502450000001772	1	0
537.2463939540903	0.8335471000000325	2	49	6111.482734	93.75	0.8127837000001819	2	0
538.0799410540903	0.8402820000001157	2	49	6112.515666	75	1.0121681000000535	2	0
538.9202230540905	n/a	0	0	0	0	0	0	0