onset	duration	offset	trial	item	RT	response
52.5256	7.697729899897297	60.223329899897294	1	att	4.01579699991271	7.0
60.2182	4.708136399975089	64.9263363999751	1	past	1.12965639994945	6.0
64.9232	1.8331463000504016	66.7563463000504	1	fut	0.704008599976078	9.0
66.7604	3.2290875000181103	69.98948750001811	1	self	1.14172469999176	9.0
69.9962	2.379983899998493	72.3761838999985	1	ppl	1.00184749998152	1.0
72.3808	2.8196940000634925	75.20049400006349	1	arou	0.716449100058526	9.0
75.188	3.0058395999949994	78.193839599995	1	aff	0.829095800057985	1.0
78.1986	3.863996000029104	82.0625960000291	1	eng	1.29417250002734	7.0
82.0634	3.4932221999620054	85.556622199962	1	mvmt	0.714597300044261	7.0
85.5664	4.321706500020994	89.888106500021	1	delib	0.817964700050652	2.0
89.8854	3.4781095000220006	93.363509500022	1	image	1.47448690002784	7.0
93.3622	1.87136540003101	95.23356540003101	1	ling	0.502353299991228	9.0
95.2372	2.042610600008004	97.279810600008	1	conf	1.16730249999091	7.0
153.1552	3.0215487000530175	156.17674870005303	2	att	1.6066558000166	9.0
156.172	2.4656466000010084	158.637646600001	2	past	0.962811899953522	1.0
158.6412	1.7756816999749958	160.416881699975	2	fut	0.371994799934328	1.0
160.4214	2.911633600015989	163.333033600016	2	self	1.39063709997572	1.0
163.3332	6.770793400006994	170.103993400007	2	ppl	0.767283199937083	6.0
170.0978	3.234957799897984	173.332757799898	2	arou	1.10613470000681	1.0
173.3394	2.5101441000590228	175.84954410005903	2	aff	0.957727600005455	5.0
175.838	4.502481400036004	180.340481400036	2	eng	0.897726600058377	9.0
180.3504	2.81081460008798	183.161214600088	2	mvmt	0.70758490008302	1.0
183.1626	8.070336700067998	191.232936700068	2	delib	0.566131900064647	9.0
191.2202	2.4984030999469837	193.718603099947	2	image	0.795560700003989	1.0
193.7244	1.7066056000770118	195.43100560007701	2	ling	0.356414800044149	9.0
195.4384	2.2721636000790113	197.710563600079	2	conf	0.720163900055923	9.0
254.539	4.308756600016977	258.84775660001696	3	att	1.59869619994424	8.0
258.862	3.9421543999339974	262.804154399934	3	past	0.818270299932919	7.0
262.801	2.3728113999819698	265.17381139998196	3	fut	0.664530099951662	1.0
265.1768	5.023225700017008	270.200025700017	3	self	0.818616400007159	6.0
270.1918	2.5051572999220184	272.696957299922	3	ppl	0.579527499969117	1.0
272.7044	2.547924799960981	275.252324799961	3	arou	0.830523199983872	2.0
275.249	3.615372500033004	278.864372500033	3	aff	0.680159699986689	7.0
278.8772	4.242587099899026	283.11978709989904	3	eng	0.984762499923818	9.0
283.1072	2.3133981000869994	285.420598100087	3	mvmt	0.502100600046106	1.0
285.4272	3.93855049996705	289.3657504999671	3	delib	0.533752499963157	2.0
289.3614	4.930575100005967	294.29197510000597	3	image	0.578582299989648	6.0
294.3032	2.6473157999570276	296.95051579995703	3	ling	1.12842720001936	9.0
296.9496	3.3062027000130456	300.255802700013	3	conf	1.22932170005515	6.0
360.1488	3.750457399991035	363.89925739999103	4	att	2.05057850002777	2.0
363.8976	2.7957537999610054	366.693353799961	4	past	0.917443699901924	1.0
366.7012	1.405065999949045	368.106265999949	4	fut	0.46530239994172	7.0
368.0994	5.829189499955987	373.928589499956	4	self	0.877640199963935	9.0
373.9392	3.3398377000120263	377.27903770001205	4	ppl	0.673507900093682	2.0
377.2766	3.8742388000250116	381.150838800025	4	arou	1.07119399996009	1.0
381.1456	3.6057058000000097	384.7513058	4	aff	0.454450099961832	7.0
384.7538	4.0733663999710075	388.827166399971	4	eng	0.637713499949314	7.0
388.8312	4.168451200006984	392.999651200007	4	mvmt	0.75910909997765	3.0
392.9936	6.6825507000320385	399.67615070003205	4	delib	0.804424700094387	8.0
399.677	4.055204999983005	403.732204999983	4	image	0.516421300009824	6.0
403.7332	3.2398372000320137	406.973037200032	4	ling	0.747192000038922	7.0
406.967	1.9221985000190216	408.889198500019	4	conf	1.15742250008043	4.0
463.7508	4.397592399966982	468.148392399967	5	att	1.30671749997418	5.0
468.1486	2.8873558000190087	471.035955800019	5	past	1.14489090000279	1.0
471.0304	2.303476099973011	473.333876099973	5	fut	0.385078299907036	5.0
473.3378	3.7827440999679993	477.120544099968	5	self	0.60441000002902	5.0
477.1182	1.5053593000629917	478.623559300063	5	ppl	0.590687099960633	7.0
478.6286	4.971046200022045	483.59964620002205	5	arou	0.738800700055435	8.0
483.5956	2.9431201999539667	486.53872019995396	5	aff	0.768348699901253	9.0
486.5404	6.034211799968034	492.574611799968	5	eng	0.505801300052553	6.0
492.5856	4.2859827000639825	496.871582700064	5	mvmt	1.399714600062	8.0
496.8696	3.5308407000269426	500.40044070002693	5	delib	0.743825700017624	2.0
500.3976	5.003952699946012	505.401552699946	5	image	0.683698099921457	9.0
505.4012	2.170992200030014	507.57219220003003	5	ling	0.593717599986121	6.0
507.5678	2.5254763999250827	510.09327639992506	5	conf	1.10677049995866	7.0
557.951	6.6147522000829895	564.565752200083	6	att	1.72121700004209	7.0
564.5746	7.0420968000540825	571.6166968000541	6	past	1.2614929000847	1.0
571.6166	1.742306699975984	573.3589066999759	6	fut	0.450038299895823	7.0
573.3476	2.639394299941955	575.986994299942	6	self	0.509172999998555	6.0
575.9956	1.4728087999390027	577.468408799939	6	ppl	0.647839699988253	6.0
577.461	3.341177100082973	580.802177100083	6	arou	1.59006680001039	2.0
580.8042	2.4807335999789757	583.284933599979	6	aff	0.877988000051118	6.0
583.2944	6.24631670000997	589.54071670001	6	eng	0.734250300098211	3.0
589.5406	3.929059000103962	593.469659000104	6	mvmt	0.600943400058895	9.0
593.4614	2.391594200046029	595.852994200046	6	delib	0.629905300098471	2.0
595.8458	3.3578749999869615	599.203674999987	6	image	0.705208000028506	3.0
599.215	3.2189353000139818	602.433935300014	6	ling	0.566204700036906	8.0
602.4226	2.380478899925947	604.8030788999259	6	conf	0.901119799935259	8.0
