onset	duration	offset	trial	item	RT	response
57.52420000000001	5.418428200064213	62.94262820006422	1	att	3.8020198000595	8.0
62.943197599976116	3.7880853000096977	66.73128289998581	1	past	1.93868799996562	8.0
66.73202310003421	3.6942406999878017	70.42626380002201	1	fut	1.84032949991524	3.0
70.42709349993692	3.292548700002996	73.71964219993991	1	self	1.8249779001344	9.0
73.72039660009631	4.844640699913711	78.56503730001002	1	ppl	1.4810126000084	6.0
78.56570360007771	3.8872458999977084	82.45294950007542	1	arou	3.02209350001067	7.0
82.45367500012821	5.604546899907504	88.05822190003572	1	aff	1.29235869995318	6.0
88.05876500009671	5.753791099880004	93.81255609997672	1	eng	2.03576719993725	6.0
93.81339939999471	4.1151739999190085	97.92857339991372	1	mvmt	2.86757060000673	8.0
97.92939189997571	2.3494456999469975	100.27883759992271	1	delib	1.20511840004474	7.0
100.27964350012171	5.4059412998620076	105.68558479998372	1	image	1.84215659997426	8.0
105.68624879991671	7.415940999984997	113.10218979990171	1	ling	6.77873470005579	5.0
113.10298999994171	2.107518300181013	115.21050830012273	1	conf	1.00534300017171	7.0
166.0621471001217	3.455748699837983	169.5178957999597	2	att	1.5231776998844	8.0
169.51853979997372	2.884519299958015	172.40305909993174	2	past	1.02998859994113	2.0
172.40378379997873	3.3018843000750167	175.70566810005374	2	fut	1.62664099992253	9.0
175.70624770004372	2.2644561000630006	177.97070380010672	2	self	0.811361399944872	9.0
177.9713152999907	3.3889774000270165	181.3602927000177	2	ppl	0.644182899966836	3.0
181.36101409992273	1.8226539001340143	183.18366800005674	2	arou	0.741642900044098	8.0
183.1843658998987	1.7393696000800105	184.9237354999787	2	aff	0.483529400080442	8.0
184.92437080004373	1.3707047000060015	186.29507550004973	2	eng	0.481098100077361	7.0
186.2955959999387	1.4300081001119906	187.7256041000507	2	mvmt	0.402641399996355	8.0
187.7262171999467	1.5310345999900221	189.2572517999367	2	delib	0.312580300029367	9.0
189.2592371999197	1.5287580001169943	190.7879952000367	2	image	0.664683000184596	8.0
190.7886358999097	1.6996021000669828	192.4882379999767	2	ling	0.534860000014305	8.0
192.4889148000077	1.9484518000389812	194.4373666000467	2	conf	0.975418899906799	8.0
248.36095729995571	4.580208900152002	252.94116620010772	3	att	1.24616390001029	7.0
252.94172550005868	3.77322490001103	256.7149504000697	3	past	1.90428879996762	7.0
256.7154398000717	4.67463280004398	261.3900726001157	3	fut	1.1683513999451	4.0
261.3908805000977	2.9652280998420224	264.3561085999397	3	self	1.60057249991223	8.0
264.3565655999267	4.119605700020031	268.4761712999467	3	ppl	2.94973450014368	8.0
268.4768382999027	2.1635701002090286	270.6404084001117	3	arou	1.48316820012406	7.0
270.6409307998987	2.8265994000250316	273.4675301999237	3	aff	1.73563120001927	7.0
273.4682866000947	2.771233799868014	276.2395203999627	3	eng	2.12829959997907	6.0
276.2402000998997	2.952283300225986	279.1924834001257	3	mvmt	1.73858790006489	8.0
279.1934707999607	4.900695699965979	284.0941664999267	3	delib	3.7981358000543	7.0
284.0948104999407	2.3869754001499928	286.4817859000907	3	image	1.05981020000763	7.0
286.4823194999627	3.2709013000129517	289.7532207999757	3	ling	2.25758680002764	7.0
289.7538037999917	1.882526200031009	291.6363300000227	3	conf	1.18077769991942	7.0
351.4728841999457	2.718637200072976	354.1915214000187	4	att	1.39130650018342	8.0
354.1917309999847	5.287546900101006	359.4792779000857	4	past	0.992631200002506	3.0
359.4794794001067	2.4797747998960062	361.9592542000027	4	fut	1.14204759988934	8.0
361.9594162000727	3.753101899986973	365.7125181000597	4	self	2.84444889985025	7.0
365.7127253000077	5.23741830000597	370.9501436000137	4	ppl	4.09393769991584	8.0
370.9503668999677	3.929125300142971	374.8794922001107	4	arou	2.70418440015055	8.0
374.8797046999827	3.814625200117007	378.6943299000997	4	aff	3.08459590002894	7.0
378.6945059999277	3.5255526001560042	382.2200586000837	4	eng	2.34570479998365	8.0
382.2203211001037	3.5788729998749886	385.7991940999787	4	mvmt	1.43093629996292	7.0
385.7994628999297	2.9464742001150057	388.7459371000447	4	delib	1.39254130003974	8.0
388.7461851999547	9.617411900078991	398.3635971000337	4	image	9.11654780013487	6.0
398.3637591999867	1.7110775001349907	400.0748367001217	4	ling	0.83471930003725	7.0
400.0750447000757	1.8174629998389946	401.8925076999147	4	conf	0.906310399994254	7.0
454.7742970000397	3.425380700034964	458.1996777000747	5	att	1.21164519991726	9.0
458.2005885999097	3.600734500215026	461.8013231001247	5	past	0.917232700157911	8.0
461.8023819000377	4.483569999923986	466.2859518999617	5	fut	3.24918289994821	8.0
466.2869753000707	3.563370299990993	469.8503456000617	5	self	0.814206099836156	7.0
469.8511996000457	2.1803399000780246	472.0315395001237	5	ppl	0.867069399915636	3.0
472.0326079001097	6.284753199899967	478.3173611000097	5	arou	5.34249339997768	7.0
478.3182867000727	2.5703745000059826	480.8886612000787	5	aff	0.743125200038776	8.0
480.8897673000027	1.8008826999000007	482.6906499999027	5	eng	0.611899300012738	8.0
482.6916770999237	1.6780992001289974	484.3697763000527	5	mvmt	0.475934999994934	8.0
484.3709940001287	2.0190084998030216	486.3900024999317	5	delib	0.879085899796337	8.0
486.3912157000887	1.7425589000339983	488.1337746001227	5	image	0.849944700021297	7.0
488.1349461000797	1.5172105999660062	489.6521567000457	5	ling	0.374952799873427	8.0
489.6531594999977	1.9156734000430333	491.5688329000407	5	conf	0.55511280009523	9.0
543.4819669999567	3.6831778001500197	547.1651448001068	6	att	2.20131270005368	8.0
547.1651630000127	4.173384600086024	551.3385476000988	6	past	0.557917000027373	2.0
551.3385633999858	2.6546925001320005	553.9932559001178	6	fut	0.574883799999952	7.0
553.9932751000307	1.2786791000980884	555.2719542001288	6	self	0.394465900026262	8.0
555.2719740000467	4.3691350999290535	559.6411090999758	6	ppl	0.551285200053826	7.0
559.6411294000137	2.1072945999910644	561.7484240000048	6	arou	1.31887400010601	8.0
561.7484390001198	1.66003109980295	563.4084700999227	6	aff	0.542884700000286	8.0
563.4084899000737	4.165197399910994	567.5736872999847	6	eng	0.498119599884376	7.0
567.5737096000378	4.711812099908002	572.2855216999458	6	mvmt	1.53232309990562	6.0
572.2855421999848	2.8716794999779722	575.1572216999627	6	delib	1.41617550002411	8.0
575.1572379999708	2.2499961999709512	577.4072341999417	6	image	0.843748700106516	9.0
577.4072538000908	1.8152200998739545	579.2224738999647	6	ling	0.487613099860027	8.0
579.2224947001238	1.972542299889028	581.1950370000128	6	conf	0.768665399868041	8.0
