onset	duration	offset	trial	item	RT	response
54.547799999999995	7.4017405999994	61.949540599999395	1	att	3.19840620000014	4.0
61.95079779999989	3.947423800000209	65.8982216000001	1	past	2.11843210000006	5.0
65.8992451000001	1.6213778999999988	67.5206230000001	1	fut	0.936542099999315	5.0
67.52174170000009	3.846795299999897	71.36853699999999	1	self	2.47372259999975	5.0
71.36945979999989	1.7143423999997083	73.0838021999996	1	ppl	0.95879210000021	5.0
73.0849003	3.1942116999998973	76.2791119999999	1	arou	2.36502099999962	5.0
76.28012969999939	1.8093664000006981	78.08949610000009	1	aff	1.15576039999996	5.0
78.0904613	4.744332000000199	82.8347933000002	1	eng	1.30306659999951	2.0
82.83668719999919	4.134399800000011	86.9710869999992	1	mvmt	2.09627900000032	7.0
86.97206569999919	3.5053371000010003	90.47740280000019	1	delib	1.55725050000001	2.0
90.47844650000019	3.2044308999990108	93.6828773999992	1	image	2.18638049999936	6.0
93.6839794999992	2.3787916999999936	96.06277119999919	1	ling	0.929374500000449	6.0
96.06374680000019	2.8501889000000062	98.9139357000002	1	conf	1.23079979999966	7.0
156.7786616000002	5.315491900000012	162.0941535000002	2	att	2.47341569999935	4.0
162.0952997000002	2.820410299999992	164.9157100000002	2	past	1.24189169999954	5.0
164.9166606999992	1.3379689999999869	166.25462969999919	2	fut	0.857938099999956	5.0
166.25590500000018	3.939960400000018	170.1958654000002	2	self	1.05231920000006	3.0
170.1969104999992	2.327362400000993	172.5242729000002	2	ppl	1.13924889999998	6.0
172.52506790000018	1.7633569999990186	174.2884248999992	2	arou	1.22595780000029	5.0
174.2897733999992	2.5118158000009885	176.8015892000002	2	aff	1.93386170000031	5.0
176.8026106999992	5.9415376000009985	182.7441483000002	2	eng	4.56213860000025	3.0
182.74505830000018	3.135359500000021	185.8804178000002	2	mvmt	2.25853310000002	6.0
185.8812312999992	4.6670099000010055	190.5482412000002	2	delib	2.05672060000052	7.0
190.5494675000002	3.4540841999990164	194.0035516999992	2	image	1.72298179999962	6.0
194.0044504999992	3.188049400001006	197.1924999000002	2	ling	1.38375160000032	6.0
197.1933994000002	3.7922939999990035	200.9856933999992	2	conf	1.34361129999979	8.0
249.8871171999992	7.361714599999971	257.24883179999915	3	att	4.07024780000029	9.0
257.2495593000002	3.9025617999990345	261.15212109999925	3	past	0.957231999999749	2.0
261.1530166000002	2.8114471000000094	263.96446370000024	3	fut	0.62192849999974	7.0
263.9652968999992	6.597345300000029	270.56264219999923	3	self	2.81503309999971	8.0
270.5632692999992	3.618409299999996	274.1816785999992	3	ppl	1.49830900000052	2.0
274.18240679999917	2.9303289000000063	277.1127356999992	3	arou	1.64125480000075	5.0
277.11391319999916	1.8156839000010336	278.9295971000002	3	aff	0.811141000000134	5.0
278.93024460000015	3.1809814000000074	282.11122600000016	3	eng	1.5822975000001	2.0
282.1118997000002	4.181716700000038	286.29361640000025	3	mvmt	1.41791339999963	5.0
286.29463539999915	2.951547000001028	289.2461824000002	3	delib	1.0632512000002	6.0
289.24712869999917	2.8497042000000192	292.0968328999992	3	image	1.47106960000019	5.0
292.0976423000002	2.087273600000003	294.1849159000002	3	ling	1.40668449999976	5.0
294.18565190000015	3.092209300000036	297.2778612000002	3	conf	1.09479499999998	7.0
356.19256039999914	5.702626700000053	361.8951870999992	4	att	1.9182737000001	7.0
361.8952067999992	7.873604299999954	369.76881109999914	4	past	2.36215970000012	5.0
369.7688280000002	3.447922499999038	373.21675049999925	4	fut	0.832618999999795	7.0
373.21677079999915	2.7300911000000383	375.9468618999992	4	self	1.5754934000006	6.0
375.9468841999992	2.2373108000000457	378.18419499999925	4	ppl	0.731496200000038	3.0
378.1842157000002	2.28406809999899	380.4682837999992	4	arou	1.05728420000014	5.0
380.4683040000002	1.6176945999990267	382.08599859999924	4	aff	1.20720280000023	5.0
382.08601920000024	3.2543329000000085	385.34035210000025	4	eng	1.54822570000033	1.0
385.3403719999992	2.5557661999999937	387.8961381999992	4	mvmt	1.72585510000044	5.0
387.8961581000002	2.186609400000009	390.0827675000002	4	delib	1.75735769999937	5.0
390.0827822000002	3.801459499998998	393.8842416999992	4	image	2.12111619999996	7.0
393.88428349999924	5.211133000000984	399.0954165000002	4	ling	2.06244290000086	4.0
399.0954386000002	5.37495389999998	404.4703925000002	4	conf	3.23588029999974	7.0
455.39399500000025	5.9054982999999766	461.2994933000002	5	att	3.35336769999958	8.0
461.2995143999992	3.78546369999998	465.0849780999992	5	past	1.55701709999994	2.0
465.0850028000002	2.8377725000000282	467.92277530000024	5	fut	0.684303600000021	2.0
467.92279599999915	2.9502176000009968	470.87301360000015	5	self	1.68854340000053	3.0
470.87303020000024	2.180509499999971	473.0535397000002	5	ppl	1.07567769999969	6.0
473.05356029999916	3.155549900001006	476.20911020000017	5	arou	1.9304616999998	4.0
476.20913099999916	2.935918300000992	479.14504930000015	5	aff	1.88497970000026	6.0
479.1450695000002	2.578639800000019	481.7237093000002	5	eng	1.04022069999974	2.0
481.72373419999917	4.1664413999999965	485.89017559999917	5	mvmt	1.11898280000059	8.0
485.8902558000002	2.9465831999989973	488.8368389999992	5	delib	1.14121390000037	3.0
488.83685830000024	3.198844299999962	492.0357026000002	5	image	2.68278180000016	5.0
492.0357223000002	2.534002800000053	494.56972510000026	5	ling	0.90370989999974	4.0
494.5697444999993	3.804889000000003	498.3746334999993	5	conf	1.51637440000013	8.0
553.2985896999992	5.711311400001023	559.0099011000002	6	att	2.72048739999991	NaN
559.0099231000003	5.184108999999921	564.1940321000002	6	past	2.70504889999938	3.0
564.1940490999992	2.7328972999999905	566.9269463999992	6	fut	0.84602200000063	3.0
566.9269666000002	2.347572199999945	569.2745388000002	6	self	1.89311759999964	5.0
569.2745574999992	1.7972102000010182	571.0717677000002	6	ppl	1.36990440000045	5.0
571.0717876999993	5.512200400000893	576.5839881000002	6	arou	1.65343660000053	5.0
576.5840042999993	1.8619212000010066	578.4459255000003	6	aff	0.948954000000413	5.0
578.4459422000002	4.995562199998972	583.4415043999992	6	eng	1.6283325000004	2.0
583.4415333999992	2.8029923999999937	586.2445257999992	6	mvmt	1.31090160000076	5.0
586.2445428999993	6.359023300001013	592.6035662000003	6	delib	4.48144469999988	3.0
592.6035804000002	4.051064399999063	596.6546447999992	6	image	1.05435579999994	5.0
596.6546651999993	1.2393064000009417	597.8939716000002	6	ling	0.658340500000122	5.0
597.8939922999992	2.218422499999974	600.1124147999992	6	conf	1.33994520000033	5.0
