onset	duration	cue	constant1	timestamp	stimulus_coherence	response_time	response	constant2
0.10226060007698834	0.8009847999783233	2	49	611045.5487	93.75	0.7748819999396801	2	0
0.9032454000553116	0.8017737999325618	2	49	611046.2447	87.5	0.6699345000088215	1	0
1.7050191999878734	0.8001037000212818	2	49	611047.1269	100	0.750313	1	0
2.5051229000091553	0.8025454999879003	1	49	611048.0638	81.25	0.8871334000723436	2	0
3.3076683999970555	0.8179572999943048	2	49	611048.5249	68.75	0.5456748000578955	1	0
4.1256257	0.8003778000129387	2	49	611049.4998	93.75	0.7026199999963865	1	0
4.926003500004299	0.8013366999803111	2	49	611050.363	100	0.7654784000478685	1	0
5.7273402	0.7999924	2	49	611051.2329	87.5	0.8339821000117809	2	0
6.527332599973306	0.8003915000008419	2	49	611052.033	87.5	0.8341448000865057	2	0
7.327724099974148	0.8001493000192568	2	49	611052.827	87.5	0.8276674000080675	2	0
8.127873399993405	0.7991106000263244	2	49	611053.6603	87.5	0.8608739000046626	2	0
8.926984	0.8019917999627069	2	49	611054.4202	93.75	0.8216059999540448	2	0
9.728975799982436	0.8023180000018328	2	49	611055.3179	81.25	0.9173431000672281	2	0
10.531293799984269	0.7994706000899896	2	49	611056.0911	81.25	0.8882014	2	0
11.330764400074258	0.8027644999092445	1	0	0	0	0	0	0
12.133528899983503	0.8026597000425681	2	49	611057.5762	100	0.7710962999844924	1	0
12.936188600026071	0.8006042999913916	2	49	611058.466	87.5	0.8582766000181437	2	0
13.736792900017463	0.8035163000458851	2	49	611059.1391	100	0.7307390000205487	1	0
14.540309200063348	0.7997219	2	49	611060.0085	93.75	0.7965975999832153	2	0
15.340031099971384	0.8023008001036942	2	49	611060.8152	93.75	0.8035934	2	0
16.142331900075078	0.8011075	2	49	611061.5344	93.75	0.7205019999528304	1	0
16.943439400056377	0.8003880999749526	2	49	611062.4131	93.75	0.7980667999945581	2	0
17.74382750003133	0.8020211999537423	2	49	611063.1593	100	0.7439535999437794	1	0
18.545848699985072	0.8001137999817729	2	49	611063.9853	100	0.7678966000676155	1	0
19.345962499966845	0.8002420000266284	2	49	611064.7662	100	0.7486835001036525	1	0
20.146204499993473	0.8032739000627771	1	0	0	0	0	0	0
20.94947840005625	0.8007582999998704	2	49	611066.4972	81.25	0.8761478000087664	2	0
21.75023670005612	0.8010243999306113	2	49	611067.1756	100	0.7537596999900416	1	0
22.551261099986732	0.8032054000068456	2	49	611068.0344	93.75	0.8116168000269681	2	0
23.354466499993578	0.8037524999817833	2	49	611069.0378	68.75	1.0117558999918401	2	0
24.15821899997536	0.7994722001021728	2	49	611069.5063	93.75	0.6765280000399798	1	0
24.957691200077534	0.8009582998929545	2	49	611070.4214	93.75	0.7921556999208406	2	0
25.75864949997049	0.8032115	2	49	611071.1736	100	0.7433556000469252	1	0
26.561861000023782	0.8017807999858633	2	49	611072.0576	87.5	0.8242108999984339	2	0
27.363641800009646	0.8019401000346988	1	49	611072.7209	93.75	0.6857411999953911	1	0
28.165581900044344	0.8003261999692768	2	49	611073.5654	100	0.7282895999960601	1	0
28.96590810001362	0.8017737000482157	2	49	611074.5224	81.25	0.8849251000210643	2	0
29.767681800061837	0.8009741000132635	2	49	611075.2468	93.75	0.8075878999661654	2	0
30.5686559	0.8024281	2	49	611075.9988	100	0.7585292999865487	1	0
31.371083999983966	0.8026422000257298	1	0	0	0	0	0	0
32.173726200009696	0.8014372000470757	2	49	611077.4886	87.5	0.6432666999753565	1	0
32.97516340005677	0.8028773999540135	2	49	611078.3209	93.75	0.6742096	1	0
33.778040800010785	0.8030302000697702	2	49	611079.1429	93.75	0.6932777999900281	1	0
34.581071000080556	0.8002420999109745	2	49	611080.0223	100	0.7696867999620736	1	0
35.38131309999153	0.8015616000629961	2	49	611081.0327	68.75	0.9798428000649437	2	0
36.182874700054526	0.8021404999308288	2	0	0	0	0	0	0
36.985015199985355	0.8026574000250548	2	49	611082.2857	87.5	0.6291282000020146	1	0
37.78767260001041	0.8027710999595001	2	49	611083.1481	93.75	0.6888727999757975	1	0
38.59044369996991	0.8041506001027301	2	49	611084.0269	100	0.7648531	1	0
39.39459430007264	0.8027191999135539	2	49	611084.8184	100	0.7521933	1	0
40.197313499986194	0.8003260000841692	2	49	611085.7635	81.25	0.8945999999996275	2	0
40.99763950007036	0.7996918999124318	2	49	611086.4733	93.75	0.8040588999865577	2	0
41.797331399982795	0.8023764000972733	1	0	0	0	0	0	0
42.59970780008007	0.8017568999202922	2	49	611087.9232	87.5	0.6518820999190211	1	0
43.40146470000036	0.8035127	2	49	611088.7429	87.5	0.6698993	1	0
44.204977400018834	0.8011264000087976	2	49	611089.6174	100	0.7408858999842778	1	0
45.00610380002763	0.8020206999499351	2	49	611090.6773	68.75	0.9996391000458971	2	0
45.808124499977566	0.8011526	2	49	611091.4713	68.75	0.9916090000187978	2	0
46.60927710006945	0.8008819000096992	2	49	611092.1185	87.5	0.8376315	2	0
47.41015900007915	0.8001948999008164	1	0	0	0	0	0	0
48.210353899979964	0.8020729999989271	2	49	611093.5456	87.5	0.6636660000076517	1	0
49.01242689997889	0.7987408000044525	1	0	0	0	0	0	0
49.81116769998334	0.8012506000231951	2	49	611095.0981	81.25	0.6153207	1	0
50.61241830000654	0.8018446000060067	2	49	611096.0356	100	0.7515693000750616	1	0
51.414262900012545	0.8015478999586776	2	49	611096.7641	93.75	0.6782873	1	0
52.21581079997122	0.8017617000732571	1	49	611097.6378	100	0.7504113001050428	1	0
53.01757250004448	0.8015507999807596	2	49	611098.4504	100	0.7613032000372186	1	0
53.81912330002524	0.8014055	2	49	611099.2243	100	0.7335935999872163	1	0
54.62052880006377	0.8010447999695316	2	49	611100.1685	81.25	0.8763641999103129	2	0
55.4215736	0.8004365999950096	2	49	611100.8664	93.75	0.7732618999434635	2	0
56.22201020002831	0.8033404999878258	2	49	611101.8456	75	0.9519993000430986	2	0
57.02535070001613	0.8012206	2	49	611102.4385	100	0.7416219000006095	1	0
57.826571300043724	0.8026214999845251	2	49	611103.3498	87.5	0.8516889000311494	2	0
58.62919280002825	0.8012843000469729	1	49	611104.3999	56.25	1.0990933999419212	2	0
59.43047710007522	0.7991574999177828	2	49	611104.8764	93.75	0.7743249000050128	2	0
60.229634599993005	0.7957314000232145	2	49	611105.5545	87.5	0.6532857000129297	1	0
61.02536600001622	0.7969147999538109	2	49	611106.4294	100	0.7324255000567064	1	0
61.82228079997003	0.7949890000745654	2	49	611107.3096	87.5	0.8157067000865936	2	0
62.617269800044596	0.7951489000115544	2	49	611108.1044	93.75	0.8156032999977469	2	0
63.41241870005615	0.7953978999285027	2	49	611108.9755	81.25	0.8915547999786213	2	0
64.20781659998465	0.7947677000192925	2	49	611109.8936	68.75	1.0141773000359535	2	0
65.00258430000395	0.7951282999711111	2	49	611110.739	56.25	1.064855600008741	2	0
65.79771259997506	0.7953185000224039	2	49	611111.1838	93.75	0.7145322000142187	1	0
66.59303109999746	0.7950060999719426	2	49	611111.9886	100	0.7239843000425026	1	0
67.3880372	0.7957482000347227	2	49	611112.7806	100	0.7210364000638947	1	0
68.18378540000413	0.7959851999767125	2	49	611113.6134	100	0.7580575000029057	1	0
68.97977059998084	0.7953374000499025	2	49	611114.3603	93.75	0.7090043000644073	1	0
69.77510800003074	0.7944577999878675	2	49	611115.1297	93.75	0.6830435	1	0
70.56956580001861	0.7942113999743015	2	49	611115.9068	87.5	0.6657060000579804	1	0
71.36377719999291	0.7946682000765577	2	49	611116.7958	100	0.7604552	1	0
72.15844540006947	0.8006183999823406	2	49	611117.6069	100	0.7768924999982119	1	0
72.95906380005181	0.7997890999540687	2	49	611118.4548	87.5	0.8241313999751583	2	0
73.75885290000588	0.8014666000381112	2	49	611119.2129	93.75	0.7825240000383928	2	0
74.56031950004399	0.8043098000343889	2	49	611119.9732	100	0.7412919999333099	1	0
75.36462930007838	0.8019371	2	49	611120.809	93.75	0.7727905999636278	2	0
76.16656639997382	0.8023247	2	49	611121.6668	87.5	0.8286652	2	0
76.96889110002667	0.8037784999469295	2	49	611122.4321	93.75	0.7916322000091895	2	0
77.7726696	0.8007332000415772	2	49	611123.2209	93.75	0.7766414	2	0
78.57340280001517	0.8002799999667332	2	49	611124.1903	75	0.9452877000439912	2	0
79.3736828	0.8008304	2	49	611124.9456	81.25	0.9003977000247687	2	0
80.17451320006512	0.8001556999515742	2	49	611125.553	93.75	0.7069527999265119	1	0
80.9746689	0.7991926999529824	2	49	611126.3345	93.75	0.6882171999895945	1	0
81.77386159996968	0.8004464000696316	2	49	611127.1439	93.75	0.6984776000026613	1	0
82.57430800003931	0.8000731	2	49	611128.0354	93.75	0.7894838999491185	2	0
83.37438110006042	0.8011310999281704	2	49	611128.8052	100	0.7592739999527112	1	0
84.17551219998859	0.8010283000767231	2	49	611129.6089	100	0.7618079000385478	1	0
84.97654050006531	0.8026054999791086	2	49	611130.3822	100	0.7341381999431178	1	0
85.77914600004442	0.7991387	2	49	611131.4192	75	0.9684785000281408	2	0
86.57828470005188	0.8025118999648839	2	49	611131.9094	87.5	0.6595886999275535	1	0
87.38079660001677	0.8021260000532493	2	49	611132.7563	93.75	0.7039240000303835	1	0
88.18292260007001	0.8002373999916017	1	49	611133.6324	93.75	0.7778854999924079	2	0
88.98316000006162	0.8021794	2	49	611134.3051	87.5	0.6503269999520853	1	0
89.78533940005582	0.8020963999442756	2	49	611135.1155	87.5	0.6585748000070453	1	0
90.5874358	0.8015778000699356	2	49	611135.9579	93.75	0.6989403000334278	1	0
91.38901360007003	0.8008623999776319	2	49	611136.7564	93.75	0.6957774	1	0
92.18987600004766	0.8004467999562621	2	49	611137.5705	93.75	0.7090839999727905	1	0
92.99032280000392	0.8007873999886215	1	49	611138.4194	100	0.7575000000651926	1	0
93.79111019999254	0.8015497	1	49	611139.1465	93.75	0.6838286999845877	1	0
94.59265990008134	0.8009838999714702	2	49	611139.9135	87.5	0.6492602999787778	1	0
95.39364380005281	0.8008654000004753	1	49	611140.7307	87.5	0.6654415000230074	1	0
96.19450920005329	0.8025725999614224	2	49	611141.5257	87.5	0.6595803999807686	1	0
96.99708180001471	0.7999169999966398	2	49	611142.3906	100	0.7219336000271142	1	0
97.79699880001135	0.8003408999647945	1	49	611143.1108	87.5	0.6422310000052676	1	0
98.59733969997615	0.7998639000579715	2	49	611144.0128	100	0.7439368000486866	1	0
99.39720360003412	0.8010279	2	49	611144.8016	100	0.7327974999789149	1	0
100.19823149999138	0.8028940000804141	2	49	611145.5621	93.75	0.6923109000781551	1	0
101.0011255000718	0.8035644	2	49	611146.415	100	0.7423021999420598	1	0
101.80468990001827	0.8027916999999434	2	49	611147.2487	100	0.7724530999548733	1	0
102.60748160001822	0.8015704000135884	1	0	0	0	0	0	0
103.4090520000318	0.8004820999922231	1	49	611148.8747	93.75	0.7941265000263229	2	0
104.20953410002403	0.7998941000550985	2	49	611149.5088	87.5	0.6276682999450713	1	0
105.00942820007913	0.7995027999859303	2	49	611150.4339	100	0.7529309999663383	1	0
105.80893100006506	0.8014701999491081	2	49	611151.5847	56.25	1.1042374999960884	2	0
106.61040120001417	0.8003695000661537	2	49	611152.0313	100	0.7492877000477165	1	0
107.41077070008032	0.7997590999584645	2	49	611152.7879	93.75	0.7055274	1	0
108.21052980003878	0.8004964999854565	2	49	611153.6588	93.75	0.7767338999547064	2	0
109.01102630002424	0.8003865999635309	2	49	611154.5333	87.5	0.8506908999988809	2	0
109.81141289998777	0.8023093000520021	2	49	611155.4031	81.25	0.9200989999808371	2	0
110.61372220003977	0.8016836999449879	2	49	611156.2035	81.25	0.9182385000167415	2	0
111.41540589998476	0.8027120000915602	2	49	611157.0064	81.25	0.9194115999853238	2	0
112.21811790007632	0.8017637999728322	2	49	611157.8262	75	0.9364862999645993	2	0
113.01988170004915	0.8027343000285327	2	0	0	0	0	0	0
113.82261600007769	0.8010684	2	49	611159.1499	87.5	0.6557612000033259	1	0
114.62368439999409	0.8029028000310063	2	49	611159.8465	75	0.5512423000764102	1	0
115.4265872000251	0.8029653000412509	1	0	0	0	0	0	0
116.22955250006635	0.8026780999498442	2	49	611161.8042	81.25	0.9030752999242395	2	0
117.03223060001619	0.8007014	2	49	611162.4602	100	0.7564228000119328	1	0
117.83293200004846	0.8005819999380037	2	49	611163.3192	93.75	0.8147012999979779	2	0
118.63351399998646	0.7998863999964669	2	49	611164.1025	93.75	0.7974187000654638	2	0
119.43340039998293	0.8003080000635237	2	49	611164.8712	100	0.7662307000719011	1	0
120.23370840004645	0.8019885	2	0	0	0	0	0	0
121.03569689998403	0.8040128999855369	2	49	611166.612	81.25	0.904751	2	0
121.83970979996957	0.8025055000325665	2	0	0	0	0	0	0
122.64221530000214	0.8035250999964774	2	49	611167.9532	87.5	0.6394185000099242	1	0
123.44574039999861	0.8000390999950469	2	49	611168.8325	93.75	0.7151830000802875	1	0
124.24577949999366	0.8016453000018373	2	49	611169.5628	87.5	0.6454706	1	0
125.0474247999955	0.8001025000121444	2	49	611170.7754	62.5	1.0564125999808311	2	0
125.84752730000764	0.8036364000290632	2	49	611171.2276	93.75	0.7084942000219598	1	0
126.6511637000367	0.8013752000406384	2	49	611172.0218	93.75	0.6990552999777719	1	0
127.45253890007734	0.8007405999815091	2	49	611172.8355	93.75	0.7113956999965012	1	0
128.25327950005885	0.8007744000060484	1	0	0	0	0	0	0
129.0540539000649	0.8023039000108838	2	49	611174.4546	100	0.7289423999609426	1	0
129.85635780007578	0.8027391	1	0	0	0	0	0	0
130.65909690002445	0.8017168	2	49	611176.0375	93.75	0.7068003000458702	1	0
131.46081369998865	0.8020815000636503	2	0	0	0	0	0	0
132.2628952000523	0.8029115999815986	2	49	611177.4665	75	0.5320219999412075	1	0
133.0658068000339	0.7999553999397904	1	0	0	0	0	0	0
133.8657621999737	0.8015850000083447	2	49	611179.1397	81.25	0.6023242000956088	1	0
134.66734719998203	0.8007378000766039	2	49	611180.0611	100	0.7221614000154659	1	0
135.46808500005864	0.8019979000091553	2	49	611181.239	56.25	1.0993435999844223	2	0
136.2700829000678	0.8011071999790147	2	49	611181.6409	93.75	0.6992866999935359	1	0
137.0711901000468	0.8004375000018626	2	49	611182.4311	93.75	0.6883446000283584	1	0
137.87162760004867	0.8012401999440044	2	49	611183.2942	100	0.7510378999868408	1	0
138.67286779999267	0.8003428	1	0	0	0	0	0	0
139.47321059997194	0.7995925000868738	2	49	611184.8188	93.75	0.6739747000392526	1	0
140.2728031000588	0.7995552999200299	2	49	611185.5601	81.25	0.6156880999915302	1	0
141.07235839997884	0.8023963000159711	2	49	611186.5209	93.75	0.7769263000227511	2	0
141.8747546999948	0.8007174000376835	1	0	0	0	0	0	0
142.6754721000325	0.8024958999594674	2	49	611188.0259	93.75	0.6788399999495596	1	0
143.47796799999196	0.7994780000299215	2	49	611188.8728	93.75	0.7232718000886962	1	0
144.27744600002188	0.8022573000052944	2	0	0	0	0	0	0
145.07970330002718	0.8003206	2	49	611190.2004	62.5	0.4491734999464825	1	0
145.88002390007023	0.8031676999526098	1	49	611191.1819	87.5	0.6303286999464035	1	0
146.68319160002284	0.8011235999874771	2	49	611192.0229	87.5	0.6681790000293404	1	0
147.48431520001031	0.8032979000126943	2	49	611192.7971	87.5	0.6411951000336558	1	0
148.2876131	0.8007663	2	49	611193.9494	68.75	0.9902459000004455	2	0
149.08837939996738	0.8030182000948116	2	49	611194.488	100	0.7280821000458673	1	0
149.8913976000622	0.8007618999108672	2	49	611195.3183	100	0.7552897999994457	1	0
150.69215949997306	0.8032824	2	49	611196.0871	93.75	0.7233679000055417	1	0
151.49544189998414	0.8027210000436753	2	49	611196.9923	87.5	0.8252625000895932	2	0
152.29816290002782	0.8025502000236884	2	49	611197.7813	93.75	0.8115340999793261	2	0
153.1007131000515	0.8002488999627531	2	49	611198.7645	68.75	0.9922706999350339	2	0
153.90096200001426	0.8041598000563681	2	49	611199.4247	87.5	0.8521784000331536	2	0
154.70512180007063	0.8003491999115795	2	49	611200.2072	87.5	0.8305447999155149	2	0
155.5054709999822	0.8016844000667334	2	49	611200.9914	93.75	0.8143908000783995	2	0
156.30715540004894	0.8030717999208719	2	49	611201.7764	93.75	0.7976900999201462	2	0
157.1102271999698	0.8047702	2	49	611202.7087	75	0.9269426000537351	2	0
157.91499740001746	0.8019801999907941	2	49	611203.3465	100	0.7599481999641284	1	0
158.71697760000825	0.8019646999891847	2	49	611204.11	93.75	0.7214104000013322	1	0
159.51894229999743	0.8012507000239566	1	0	0	0	0	0	0
160.3201930000214	0.8020826999563724	2	49	611205.6514	87.5	0.6596032000379637	1	0
161.12227569997776	0.8016993	2	49	611206.8494	62.5	1.0555828000651672	2	0
161.92397500004154	0.7998815999599174	1	49	611207.2524	87.5	0.6569033999694511	1	0
162.72385660000145	0.8002410000190139	2	49	611207.9586	75	0.5631722999969497	1	0
163.52409760002047	0.8014049000339583	2	49	611208.9197	100	0.7239869999466464	1	0
164.32550250005443	0.8004532000049949	2	49	611209.7144	93.75	0.7172818999970332	1	0
165.12595570005942	0.8022087	2	49	611210.4833	93.75	0.6857860999880359	1	0
165.9281644000439	0.7998081999830902	2	49	611211.3046	93.75	0.7049123999895528	1	0
166.7279726	0.8011935000540689	2	49	611212.2696	87.5	0.8700206000357866	2	0
167.52916610008106	0.8005156998988241	2	49	611213.142	75	0.9412671999307349	2	0
168.32968179997988	0.8027826000470668	1	0	0	0	0	0	0
169.13246440002695	0.8030779999680817	2	49	611214.5921	93.75	0.7880601000506431	2	0
169.93554239999503	0.8018346	2	49	611215.4719	87.5	0.8647441000211984	2	0
170.7373770000413	0.8033938	2	49	611216.203	93.75	0.7940106999594718	2	0
171.54077079996932	0.8017697000177577	2	49	611216.957	100	0.7446223000297323	1	0
172.34254049998708	0.8030541	2	49	611217.8927	81.25	0.8786076999967918	2	0
173.1455946	0.8015840000007302	2	49	611218.6437	87.5	0.8265729000559077	2	0
173.94717860000674	0.8029806000413373	2	49	611219.436	93.75	0.8172409000108019	2	0
174.75015920004807	0.8018779000267386	2	49	611220.1487	100	0.7269669999368489	1	0
175.5520371000748	0.801245	2	49	611220.927	93.75	0.7034066999331117	1	0
176.35328210005537	0.8017117999261245	2	49	611221.829	93.75	0.8041747999377549	2	0
177.1549938999815	0.8016394000733271	2	49	611222.5979	100	0.7713480000384152	1	0
177.95663330005482	0.8026962999720126	2	49	611223.3401	93.75	0.7119411999592558	1	0
178.75932960002683	0.8018219	2	49	611224.0759	87.5	0.6449713000329211	1	0
179.5611514999764	0.8009362000739202	2	49	611224.9599	100	0.7271496000466868	1	0
180.36208770005032	0.8035954999504611	1	49	611225.7598	100	0.7261833000229672	1	0
181.16568320000079	0.8015627000713721	2	49	611226.493	87.5	0.6557175000198185	1	0
181.96724590007216	0.8003352999221534	2	49	611227.3672	100	0.7283873999258503	1	0
182.7675811999943	0.8008741000667214	2	49	611228.0872	87.5	0.6480468000518158	1	0
183.56845530006103	0.8014219999313354	2	49	611229.0443	93.75	0.8042864999733865	2	0
184.36987729999237	0.8023984000319615	2	49	611229.8622	93.75	0.8207974000833929	2	0
185.17227570002433	0.8021497000008821	1	0	0	0	0	0	0
185.9744254000252	0.8016629000194371	1	0	0	0	0	0	0
186.77608830004465	0.8015207	2	49	611232.1894	100	0.7417317000217736	1	0
187.57760900002904	0.8003826000494882	2	49	611232.9466	93.75	0.6973987000528723	1	0
188.37799160007853	0.8015947999665514	2	49	611233.8398	93.75	0.7902461999328807	2	0
189.17958640004508	0.8036580999614671	2	49	611234.6946	87.5	0.8434118999866769	2	0
189.98324450000655	0.7999735999619588	2	49	611235.7674	56.25	1.1125960999634117	2	0
190.7832180999685	0.8011669	2	49	611236.3423	81.25	0.8875331000890583	2	0
191.58438500005286	0.8009244999848306	2	49	611237.0843	87.5	0.8283131999196485	2	0
192.3853095000377	0.8013624999439344	2	49	611237.9955	75	0.9385943999513984	2	0
193.18667199998163	0.8018154000164941	1	0	0	0	0	0	0
193.98848739999812	0.8018435999983922	2	49	611239.4455	93.75	0.7854518999811262	2	0
194.7903309999965	0.8025397000601515	2	49	611240.2866	87.5	0.8246835999889299	2	0
195.59287070005666	0.8026795999612659	1	0	0	0	0	0	0
196.39555030001793	0.8011481000576168	2	49	611241.8515	93.75	0.7843897000420839	2	0
197.19669840007555	0.7994411999825388	2	49	611242.674	93.75	0.8057049	2	0
197.9961396000581	0.8009548999834806	2	49	611243.5355	87.5	0.8678109999746084	2	0
198.79709450004157	0.8008171999827027	2	49	611244.3475	81.25	0.8788791999686509	2	0
199.59791170002427	0.8036264999536797	2	49	611245.2069	75	0.9374078999971971	2	0
200.40153819997795	0.8008042000001296	2	49	611245.9898	81.25	0.9166898000985384	2	0
201.20234239997808	0.8012641000095755	2	49	611246.7257	87.5	0.8517694000620395	2	0
202.00360649998765	0.8022480000508949	2	49	611247.5126	87.5	0.8374585000565276	2	0
202.80585450003855	0.8013527999864891	2	49	611248.353	87.5	0.8755917999660596	2	0
203.60720730002504	0.7991321999579668	2	49	611249.2651	68.75	0.9862921	2	0
204.4063395	0.8024262000108138	2	49	611249.9218	87.5	0.8438642000546679	2	0
205.20876569999382	0.8013477000640705	2	49	611250.5368	87.5	0.6564431000733748	1	0
206.0101134000579	0.8003032999113202	2	49	611251.4071	93.75	0.7253993999911472	1	0
206.8104166999692	0.8024119000183418	1	0	0	0	0	0	0
207.61282859998755	0.8022385999793187	2	49	611253.0137	100	0.7292764000594616	1	0
208.41506719996687	0.8010085000423715	2	49	611253.8698	93.75	0.7831595001043752	2	0
209.21607570000924	0.8035814	2	49	611254.9881	56.25	1.1004694000585005	2	0
210.01965709996875	0.8020016000373289	2	49	611255.445	100	0.7537667	1	0
210.82165870000608	0.8012119999621063	2	49	611256.1352	87.5	0.6420020000077784	1	0
211.6228706999682	0.8004891000455245	2	49	611256.9879	93.75	0.6934601000975817	1	0
212.4233598000137	0.8016369000542909	2	49	611257.7601	87.5	0.6652046999661252	1	0
213.2249967	0.8023637000005692	2	49	611258.6253	100	0.7287616999819875	1	0
214.02736040006857	0.8026174999540672	2	49	611259.5651	87.5	0.866216	2	0
214.82997790002264	0.8006067000096664	2	49	611260.2954	93.75	0.7938644000096247	2	0
215.6305846000323	0.8034241000423208	2	49	611261.1691	87.5	0.8669389999704435	2	0
216.43400870007463	0.8016918000066653	2	49	611261.9149	93.75	0.8093668	2	0
217.2357005000813	0.8024537999881431	2	49	611262.9516	62.5	1.0442981999367476	2	0
218.03815430006944	0.8001184999011457	2	49	611263.4891	93.75	0.7793419999070466	2	0
218.83827279997058	0.8040829000528902	2	49	611264.2652	100	0.7553478000918403	1	0
219.64235570002347	0.8008853000355884	1	49	611265.0281	93.75	0.7142250000033528	1	0
220.44324100005906	0.8011410000035539	2	49	611265.8941	93.75	0.7793175999540836	2	0
221.24438200006261	0.7992700999602675	2	49	611266.6894	100	0.7734932	1	0
222.04365210002288	0.8024391999933869	1	0	0	0	0	0	0
222.84609130001627	0.8044967000605538	2	49	611268.2571	100	0.7394769999664277	1	0
223.65058800007682	0.8010878999484703	2	49	611269.0892	100	0.7670692999381572	1	0
224.4516759000253	0.8022685999749228	2	49	611269.9825	87.5	0.8592177999671549	2	0
225.25394450000022	0.8019981000106782	2	0	0	0	0	0	0
226.0559426000109	0.8026384999975562	2	49	611271.3738	87.5	0.6462498999899253	1	0
226.85858110000845	0.8014966000337154	2	49	611272.3175	93.75	0.7873822000110522	2	0
227.66007770004217	0.8017809999873862	2	49	611273.0484	93.75	0.7167124999687076	1	0
228.46185870002955	0.8017428000457585	2	49	611273.9086	93.75	0.7751811	2	0
229.2636015000753	0.8016658999258652	2	49	611274.6844	100	0.7492434999439865	1	0
230.06526740000118	0.7997431000694633	2	49	611275.5054	100	0.7686115000396967	1	0
230.86501050007064	0.7999077999265864	2	49	611276.2506	93.75	0.7139934999868274	1	0
231.66491829999723	0.8014370000455528	1	49	611277.0945	100	0.7580029000528157	1	0
232.46635530004278	0.8006630999734625	2	49	611277.8715	100	0.7335307999746874	1	0
233.26701840001624	0.8012598999775946	1	49	611278.7045	100	0.7659051000373438	1	0
234.06827829999384	0.8031159000238404	2	49	611279.5447	93.75	0.8048133000265807	2	0
234.87139420001768	0.8018907000077888	2	49	611280.2986	100	0.7556796000571921	1	0
235.67328490002546	0.8020279000047594	2	49	611281.1735	87.5	0.8286607000045478	2	0
236.47531280003022	0.8024139000335708	2	49	611282.0225	81.25	0.8756540999747813	2	0
237.2777267000638	0.8026466999435797	2	49	611282.8189	87.5	0.8696525	2	0
238.08037340000737	0.8052953999722376	2	49	611283.5658	93.75	0.8138251999625936	2	0
238.8856687999796	0.8013612000504509	2	49	611284.299	100	0.7417714000912383	1	0
239.68703000003006	0.8023280999623239	2	49	611285.1506	93.75	0.7920375999528915	2	0
240.4893580999924	0.8008864000439644	1	0	0	0	0	0	0
241.29024450003635	0.8022098999936134	2	49	611286.7211	100	0.7593231999780983	1	0
242.09245440002996	0.8007547999732196	2	49	611287.5649	93.75	0.8008677000179887	2	0
242.89320920000318	0.7995881	2	0	0	0	0	0	0
243.69279730005655	0.8020717999897897	2	49	611289.1178	100	0.7534488999517635	1	0
244.49486910004634	0.8004104000283405	2	49	611289.8332	87.5	0.6667449999367818	1	0
245.29527950007468	0.8003696999512613	2	49	611290.5889	87.5	0.6220651000039652	1	0
246.09564920002595	0.8005221999483183	2	49	611291.4428	93.75	0.6756072000134736	1	0
246.89617139997426	0.8017425000434741	2	49	611292.303	100	0.7353055001003668	1	0
247.69791390001774	0.8004290000535548	2	49	611293.089	93.75	0.7194724000291899	1	0
248.4983429000713	0.8021570999408141	2	49	611293.8799	93.75	0.7099469999084249	1	0
249.3005000000121	0.8020918000256643	2	49	611294.6841	93.75	0.7120468000648543	1	0
250.10259180003777	0.8028211999917403	2	49	611295.6012	87.5	0.8270459999330342	2	0
250.9054130000295	0.8007264999905601	2	49	611296.4164	87.5	0.83938	2	0
251.70613950002007	0.8022164000431076	2	49	611297.2287	87.5	0.8509508999995887	2	0
252.50835590006318	0.8033635999308899	2	49	611298.0004	93.75	0.8204426999436691	2	0
253.31171949999407	0.8039618000620976	2	49	611298.8874	81.25	0.9040836000349373	2	0
254.11568130005617	0.8010349000105634	1	0	0	0	0	0	0
254.91671620006673	0.8011028999462724	1	49	611300.6473	62.5	1.058970799902454	2	0
255.7178191	0.8004446000559255	2	49	611301.5536	50	1.1642237000633031	2	0
256.5182637000689	0.8029354999307543	2	0	0	0	0	0	0
257.3211991999997	0.8001463999971747	2	49	611302.6423	87.5	0.6495157000608742	1	0
258.12134559999686	0.8032708000391722	2	49	611303.6874	81.25	0.8944507000269368	2	0
258.92461640003603	0.8015689000021666	2	49	611304.4504	87.5	0.8541703999508172	2	0
259.7261853000382	0.8020284000085667	2	49	611305.1996	93.75	0.8018458	2	0
260.52821370004676	0.7995918999658898	2	49	611306.0232	87.5	0.8234368999255821	2	0
261.32780560001265	0.8013028999557719	2	49	611306.7352	100	0.7357813999988139	1	0
262.1291084999684	0.8031055	2	49	611307.6268	87.5	0.8260809000348672	2	0
262.9322140000295	0.8016860999632627	2	49	611308.7049	56.25	1.1010928000323474	2	0
263.73390009999275	0.8020538000855595	2	49	611309.6105	43.75	1.2050771000795066	2	0
264.5359539000783	0.8032221	2	0	0	0	0	0	0
265.3391759999795	0.8008399000391364	2	49	611310.5895	81.25	0.5787753000622615	1	0
266.1400159000186	0.8018166000256315	2	49	611311.4746	87.5	0.6630641999654472	1	0
266.94183250004426	0.8001796000171453	2	49	611312.3696	100	0.7562342999735847	1	0
267.7420121000614	0.8022842999780551	2	49	611313.2917	87.5	0.8780856999801472	2	0
268.54429640003946	0.8017866000300273	2	49	611313.9907	93.75	0.7747885999269783	2	0
269.3460830000695	0.8003870999673381	2	49	611314.9255	81.25	0.9078669999726117	2	0
270.1464701000368	0.8021385000320151	2	49	611315.6487	87.5	0.8307091000024229	2	0
270.94860860006884	0.8045254999306053	2	49	611316.3744	100	0.7542609	1	0
271.75313409999944	0.7992821000516415	2	49	611317.1846	100	0.7599029999691993	1	0
272.5524162000511	0.8000786999473348	2	49	611317.9427	93.75	0.7187303999671713	1	0
273.3524948999984	0.8027372000506148	2	49	611318.7879	100	0.7638262000400573	1	0
274.15523210004903	0.8011360999662429	2	49	611319.6848	87.5	0.8580046999268234	2	0
274.9563682000153	0.8029038000386208	2	0	0	0	0	0	0
275.7592720000539	0.8040979999350384	2	49	611321.1508	93.75	0.7199155000271276	1	0
276.56336999998894	0.7998479000525549	2	49	611322.1019	87.5	0.8669431	2	0
277.3632179000415	0.7996750000165775	2	49	611323.1939	50	1.1591258000116795	2	0
278.16289290005807	0.8015270999167114	2	0	0	0	0	0	0
278.9644199999748	0.8015177000779659	2	49	611324.1799	75	0.5438963000196964	1	0
279.76593770005275	0.8007104999851435	2	49	611325.058	81.25	0.6204939	1	0
280.5666482000379	0.8018136	2	49	611325.92	93.75	0.6818202999420464	1	0
281.3684618000407	0.8013065999839455	2	49	611326.7629	100	0.7228729999624193	1	0
282.1697684000246	0.8018127	2	49	611327.551	93.75	0.7097126999869943	1	0
282.97158110002056	0.8018778000259772	2	49	611328.4199	93.75	0.7767143	2	0
283.77345890004653	0.8013156999368221	2	49	611329.1326	93.75	0.6875642000231892	1	0
284.57477459998336	0.8007915000198409	2	49	611330.337	56.25	1.0907057999866083	2	0
285.3755661000032	0.8002669999841601	2	49	611330.846	93.75	0.7988799000158906	2	0
286.17583309998736	0.8010908000869676	2	49	611331.5052	87.5	0.6577544000465423	1	0
286.9769239000743	0.7997284999582916	2	49	611332.3374	93.75	0.6889456999488175	1	0
287.7766524000326	0.8004730000393465	1	0	0	0	0	0	0
288.57712540007196	0.8022394999861717	2	49	611333.9342	93.75	0.6855226999614388	1	0
289.37936490005814	0.8005755000049248	2	0	0	0	0	0	0
290.17994040006306	0.8022638999391347	2	49	611335.4669	81.25	0.6154233999550343	1	0
290.9822043000022	0.8014658000320196	2	49	611336.3504	93.75	0.6966057000681758	1	0
291.7836701000342	0.7992907000007108	2	49	611337.1302	93.75	0.6749451999785379	1	0
292.5829608000349	0.8023682000348344	2	49	611337.9872	100	0.7326245999429375	1	0
293.38532900006976	0.8022363999625668	2	49	611338.9243	87.5	0.8673944999463856	2	0
294.1875654000323	0.7994423999916762	1	0	0	0	0	0	0
294.9870078	0.8027394999517128	2	49	611340.5784	81.25	0.9198571000015363	2	0
295.7897472999757	0.8010317001026124	1	0	0	0	0	0	0
296.5907790000783	0.8014997	2	49	611342.0374	93.75	0.7750101999845356	2	0
297.39227870001923	0.802329	1	0	0	0	0	0	0
298.1946076999884	0.8029256000882015	2	49	611343.5195	87.5	0.6533424999797717	1	0
298.9975333000766	0.8015907999360934	1	0	0	0	0	0	0
299.7991241000127	0.8017230000114068	2	49	611345.116	87.5	0.6452801000559703	1	0
300.6008471000241	0.8004770999541506	2	49	611346.2734	68.75	1.001015100046061	2	0
301.40132419997826	0.8010225	2	49	611346.7937	93.75	0.7208301000064239	1	0
302.2023467000108	0.8015156000619754	2	49	611347.6496	93.75	0.7756727000232786	2	0
303.0038623000728	0.8010512	2	49	611348.3425	87.5	0.6670805999310687	1	0
303.80491349997465	0.8016831000568345	1	0	0	0	0	0	0
304.6065966000315	0.8040087999543175	2	49	611349.9755	93.75	0.6973608999978751	1	0
305.4106053999858	0.8018288	2	49	611351.1487	62.5	1.0664812000468373	2	0
306.2124341999879	0.8016797000309452	2	49	611351.5996	93.75	0.7155792000703514	1	0
307.01411390001886	0.8001550000626594	1	49	611352.2867	81.25	0.6010439000092447	1	0
307.8142689000815	0.7993716999189928	2	49	611353.1918	93.75	0.7060042999219149	1	0
308.6136406000005	0.7999767999863252	2	49	611353.925	87.5	0.6397732000332326	1	0
309.41361739998683	0.8001280000898987	2	49	611354.7487	87.5	0.6634667000034824	1	0
310.21374540007673	0.8021797999972478	2	49	611355.5517	87.5	0.6663787999423221	1	0
311.0159252	0.8008034999947995	1	0	0	0	0	0	0
311.8167287000688	0.8008944999892265	2	49	611357.2448	100	0.7565087999682873	1	0
312.6176232	0.7999102999456227	2	49	611358.0838	93.75	0.7946307000238448	2	0
313.41753350000363	0.8004092000192031	2	49	611358.7752	93.75	0.6860711000626907	1	0
314.21794270002283	0.8017102000303566	2	49	611359.5819	93.75	0.6923880999675021	1	0
315.0196529000532	0.8028844	2	49	611360.329	87.5	0.6377416999312118	1	0
315.8225373000605	0.8019574999343604	2	49	611361.3309	87.5	0.8368028999539092	2	0
316.62449479999486	0.8020107999909669	2	49	611362.066	100	0.7699070000089705	1	0
317.42650559998583	0.8024132000282407	2	49	611362.7542	87.5	0.6561647000489756	1	0
318.22891880001407	0.8004031999735162	2	49	611363.6241	100	0.7236322000389919	1	0
319.0293219999876	0.8023863000562415	1	0	0	0	0	0	0
319.83170830004383	0.8019617999671027	2	49	611365.1991	93.75	0.6958360000280663	1	0
320.63367010001093	0.8028244000161067	2	49	611365.9934	93.75	0.6881381999701262	1	0
321.43649450002704	0.8006011999677867	2	49	611366.7801	93.75	0.6720237	1	0
322.2370956999948	0.7997544000390917	2	49	611367.6503	100	0.7416415000334382	1	0
323.0368501000339	0.8004833000013605	2	49	611368.4511	100	0.7427010999526829	1	0
323.8373334000353	0.7994138000067323	2	49	611369.2445	100	0.7355530000058934	1	0
324.6367472	0.8021074	1	49	611369.9841	87.5	0.6757839999627322	1	0
325.43885460007004	0.7977453999919817	2	49	611370.7291	81.25	0.6187252	1	0
326.2366	0.7945721999276429	2	49	611371.9702	62.5	1.062065799953416	2	0
327.03117219998967	0.7981377000687644	2	49	611372.2933	81.25	0.5906108000781387	1	0
327.82930990005843	0.8021868999348953	2	49	611373.4443	75	0.9434334000106901	2	0
328.63149679999333	0.8014233000576496	2	49	611374.0936	93.75	0.7905179000226781	2	0
329.4329201	0.8020850999746472	2	49	611375.1085	68.75	1.0039706999668851	2	0
330.2350052000256	0.8009664999553934	2	49	611375.8254	81.25	0.9188701000530273	2	0
331.0359717	0.8016745999921113	2	49	611376.4086	93.75	0.7010925	1	0
331.83764629997313	0.8041034	2	49	611377.1306	81.25	0.6213550000684336	1	0
332.6417497000657	0.8018022999167442	2	49	611377.9109	81.25	0.5975771999219432	1	0
333.44355199998245	0.8007204	2	49	611378.8424	93.75	0.7272842000238597	1	0
334.2442724	0.8035453000338748	2	49	611379.6186	93.75	0.7027461000252515	1	0
335.04781770007685	0.8010546999284998	2	49	611380.9257	43.75	1.206335199996829	2	0
335.84887240000535	0.8007327	2	0	0	0	0	0	0
336.6496051000431	0.8007260999875143	2	49	611381.8525	75	0.5313601000234485	1	0
337.45033120003063	0.8023742999648675	2	49	611382.7195	81.25	0.5975851999828592	1	0
338.2527054999955	0.8013362999772653	2	49	611383.6889	100	0.7645811000838876	1	0
339.05404179997277	0.8023677000310272	2	49	611384.6305	81.25	0.9049152000807226	2	0
339.8564095000038	0.7996829	2	49	611385.3276	93.75	0.7996711999876425	2	0
340.6560924000805	0.8004290999379009	2	49	611386.2274	81.25	0.8997898999368772	2	0
341.4565215000184	0.8004977999953553	2	49	611386.9707	87.5	0.8425938000436872	2	0
342.2570193000138	0.8024886000202969	2	49	611387.8058	81.25	0.8772112999577075	2	0
343.0595079000341	0.8002810999751091	1	0	0	0	0	0	0
343.8597890000092	0.8004665999906138	2	49	611389.344	93.75	0.8126084000105038	2	0
344.6602555999998	0.8018030000384897	1	0	0	0	0	0	0
345.4620586000383	0.8002169999526814	2	49	611390.8866	100	0.7530222999630496	1	0
346.26227559999097	0.7997921999776736	2	49	611391.675	100	0.7411914999829605	1	0
347.06206779996864	0.8002675001043826	2	49	611392.4631	100	0.7294456000672653	1	0
347.8623353	0.8003511999268085	2	49	611393.3198	93.75	0.7859261	2	0
348.66268649999984	0.7998314000433311	2	49	611394.0618	100	0.7275624	1	0
349.46251790004317	0.7999255999457091	2	49	611394.9989	87.5	0.8647679999703541	2	0
350.2624434999889	0.8005112999817356	2	49	611395.7281	93.75	0.7941178000764921	2	0
351.0629547999706	0.8029088000766933	2	49	611396.658	81.25	0.9234299000818282	2	0
351.8658636000473	0.8019837000174448	2	49	611397.2952	100	0.7578123999992386	1	0
352.66784730006475	0.7982488	2	49	611398.2551	81.25	0.9157290000002831	2	0
353.46609610004816	0.8012253999477252	2	49	611398.8201	93.75	0.6824277000268921	1	0
354.2673214999959	0.8015307	2	49	611399.7012	100	0.7623008000664413	1	0
355.0688522000564	0.8014984999317676	2	49	611400.4406	93.75	0.7002314999699593	1	0
355.8703506999882	0.8029083	2	49	611401.1732	87.5	0.6312481000786647	1	0
356.6732590000611	0.8027544999495149	2	49	611402.0771	100	0.7322923999745399	1	0
357.4760135000106	0.8018191000446677	2	49	611402.9033	100	0.7557237000437453	1	0
358.27783260005526	0.8027124999789521	2	49	611403.6073	87.5	0.6579107999568805	1	0
359.0805451000342	0.8029115999815986	2	49	611404.3908	87.5	0.6386914999457076	1	0
359.8834567000158	0.8009684999706224	2	49	611405.1516	81.25	0.5965680000372231	1	0
360.68442519998644	0.7997136000776663	2	49	611406.1983	87.5	0.8422990000108257	2	0
361.4841388000641	0.7992188	2	49	611406.8315	87.5	0.6758062000153586	1	0
362.2833576	0.7991293000523001	1	49	611407.6823	100	0.7273795	1	0
363.0824869000353	0.7997179999947548	2	49	611408.4466	93.75	0.6925838999450207	1	0
363.88220490003005	0.8002509	2	49	611409.3214	100	0.7676721999887377	1	0
364.68245580000803	0.8004558000247926	2	49	611410.1447	93.75	0.7906923000700772	2	0
365.4829116000328	0.8074919999344274	2	49	611410.7753	81.25	0.6208657	1	0
366.29040359996725	0.8014452001079917	2	49	611411.6198	87.5	0.6577836000360548	1	0
367.09184880007524	0.8019989999011159	2	49	611412.3904	87.5	0.6269671999616548	1	0
367.89384779997636	0.8003413000842556	2	49	611413.4425	81.25	0.8770397000480443	2	0
368.6941891000606	0.8018179	2	49	611414.0963	100	0.7305404999060556	1	0
369.4960069999797	0.8023464999860153	2	49	611414.9575	93.75	0.789932	2	0
370.29835349996574	0.8019763000775129	2	49	611415.7035	100	0.7336158000398427	1	0
371.10032980004326	0.8009729000041261	2	49	611416.5217	100	0.7497665999690071	1	0
371.9013027000474	0.8016488	2	49	611417.5118	75	0.9389657999854535	2	0
372.70295150007587	0.8004038999788463	2	49	611418.1106	100	0.7360448999097571	1	0
373.5033554000547	0.7992116999812424	2	49	611418.8739	93.75	0.6989974000025541	1	0
374.30256710003596	0.8035349999554455	2	49	611419.7488	93.75	0.7747070000041276	2	0
375.1061020999914	0.8005644000368193	2	0	0	0	0	0	0
375.9066665000282	0.8006774999666959	2	49	611421.1697	81.25	0.5914970999583602	1	0
376.7073439999949	0.8000717000104487	2	0	0	0	0	0	0
377.50741570000537	0.8032110000494868	2	49	611422.636	62.5	0.4570664999773726	1	0
378.31062670005485	0.8004439999349415	2	49	611423.8461	87.5	0.8639552999520674	2	0
379.1110706999898	0.8015130000421777	2	49	611424.3749	81.25	0.5922407	1	0
379.9125837	0.8040255999658257	2	49	611425.289	93.75	0.7048941999673843	1	0
380.7166092999978	0.8017455000663176	2	49	611426.0857	93.75	0.6975667000515386	1	0
381.5183548000641	0.8006876999279484	2	49	611426.9239	100	0.7339402999496087	1	0
382.31904249999207	0.7989024000708014	2	49	611427.7909	93.75	0.8002789000747725	2	0
383.11794490006287	0.8035199999576434	2	49	611428.794	68.75	1.0044610999757424	2	0
383.9214649000205	0.8002632999559864	2	49	611429.3047	93.75	0.7116315000457689	1	0
384.7217281999765	0.8024954000720754	2	49	611430.1609	100	0.7676485000411049	1	0
385.5242236000486	0.8015650999732316	2	49	611431.0249	87.5	0.8291285999584943	2	0
386.3257887000218	0.8029432999901474	1	49	611431.717	93.75	0.7196412000339478	1	0
387.12873200001195	0.7991124000400305	1	0	0	0	0	0	0
387.9278444	0.7994558999780566	2	49	611433.2884	93.75	0.6889456	1	0
388.72730030003004	0.8013980999821797	2	49	611434.0929	93.75	0.6940463000210002	1	0
389.5286984000122	0.8013347999658436	1	0	0	0	0	0	0
390.33003319997806	0.8022734000114724	2	49	611435.7681	100	0.7664831000147387	1	0
391.13230659998953	0.8001076000509784	2	49	611436.5763	93.75	0.7724621000234038	2	0
391.9324142000405	0.8054691000143066	2	49	611437.4682	87.5	0.8641956000356004	2	0
392.7378833000548	0.8015359999844804	2	49	611438.1937	93.75	0.7842279999749735	2	0
393.5394193000393	0.8023650000104681	2	49	611439.026	93.75	0.8149904999881983	2	0
394.34178430004977	0.8033736000070348	2	49	611439.8704	87.5	0.8570215000072494	2	0
395.1451579000568	0.8005602000048384	2	49	611440.6534	87.5	0.8367163	2	0
395.94571810006164	0.8017413999186829	2	49	611441.4254	93.75	0.8081617999123409	2	0
396.7474594999803	0.7985929000424221	2	49	611442.1952	93.75	0.7761958000482991	2	0
397.54605240002275	0.801668	2	49	611442.9894	93.75	0.7718057000311092	2	0
398.3477204	0.7996281998930499	2	49	611443.7643	100	0.7450088999466971	1	0
399.14734859997407	0.7982179000973701	1	0	0	0	0	0	0
399.94556650007144	0.8026064999867231	2	49	611445.3863	100	0.7691551999887452	1	0
400.74817300005816	0.7994221999542788	2	49	611446.5794	50	1.1596496999263763	2	0
401.54759520001244	0.7999717000639066	2	0	0	0	0	0	0
402.34756690007634	0.8011657999595627	2	49	611447.8044	93.75	0.7853123999666423	2	0
403.1487327000359	0.8026581	2	49	611448.6974	87.5	0.8771160999312997	2	0
403.9513908000663	0.8016956	2	49	611449.6668	62.5	1.043805499910377	2	0
404.7530863999855	0.8029007000150159	2	49	611450.4585	62.5	1.0338805000064895	2	0
405.5559871000005	0.8047585000749677	2	49	611450.9515	93.75	0.7239729000721127	1	0
406.36074560007546	0.8020515999523923	2	49	611451.9426	81.25	0.9103027998935431	2	0
407.16279720002785	0.8031458000186831	2	49	611452.6277	93.75	0.7933631000341848	2	0
407.96594300004654	0.8001716999569908	2	49	611453.6721	62.5	1.0346145000075921	2	0
408.7661147000035	0.8023114000679925	2	49	611454.1862	100	0.7484755	1	0
409.5684261000715	0.8032055	2	49	611454.9573	93.75	0.7172726999269798	1	0
410.3716316000791	0.8019315999699757	2	49	611455.7441	93.75	0.7009117999114096	1	0
411.1735632000491	0.8018497999291867	2	49	611456.5397	93.75	0.6945514000253752	1	0
411.9754129999783	0.8001152999931946	2	49	611457.3767	100	0.7297194000566378	1	0
412.7755282999715	0.8032496999949217	2	49	611458.2059	100	0.7588415000354871	1	0
413.5787779999664	0.8013794000726193	1	0	0	0	0	0	0
414.3801574	0.8000992999877781	1	0	0	0	0	0	0
415.1802567000268	0.8006219000089914	2	49	611460.5894	100	0.7375466000521556	1	0
415.9808786000358	0.8010383000364527	2	49	611461.3488	93.75	0.6963779999641702	1	0
416.78191690007225	0.8032744999509305	1	0	0	0	0	0	0
417.5851914000232	0.8008433999493718	2	49	611463.173	81.25	0.9162822000216693	2	0
418.38603479997255	0.8006922	2	49	611463.7934	100	0.7357548	1	0
419.1867270000512	0.8181103999959305	2	49	611464.6313	100	0.7729965000180528	1	0
420.0048374000471	0.8028624999569729	2	49	611465.4132	100	0.7368095000274479	1	0
420.8076999000041	0.8016143999993801	2	49	611466.247	100	0.7677066000178456	1	0
421.60931430000346	0.8016405999660492	2	49	611467.0512	100	0.7703001999761909	1	0
422.4109548999695	0.8010413000592962	1	0	0	0	0	0	0
423.2119962000288	0.8015858000144362	2	49	611468.7861	81.25	0.9025734999449924	2	0
424.01358200004324	0.8013929999433458	2	49	611469.4493	100	0.7641675999620929	1	0
424.8149749999866	0.8008032999932766	2	49	611470.7268	37.5	1.2402990000555292	2	0
425.61577829997987	0.7998656000709161	2	49	611471.0443	100	0.7569099999964237	1	0
426.4156439000508	0.7980378000065684	2	49	611471.7715	93.75	0.6842872999841347	1	0
427.21368170005735	0.8004161999560893	2	49	611472.5493	87.5	0.6640203999122605	1	0
428.01409790001344	0.8027721999678761	2	49	611473.4803	93.75	0.7946834999602288	2	0
428.8168700999813	0.8023205000208691	2	49	611474.2869	93.75	0.7984442000743002	2	0
429.6191906000022	0.8010062000248581	2	49	611475.0554	100	0.7646846000570804	1	0
430.42019680002704	0.8017526000039652	2	49	611475.9303	87.5	0.8385057999985293	2	0
431.2219494	0.8006066000089049	2	49	611476.7613	87.5	0.8677967999828979	2	0
432.0225560000399	0.8003976999316365	2	49	611477.4436	100	0.7494449999649078	1	0
432.82295369997155	0.8028122000396252	2	49	611478.2126	93.75	0.7180422000819817	1	0
433.6257659000112	0.8004794	2	49	611478.9935	93.75	0.6961888000369072	1	0
434.42624529998284	0.8017791	2	49	611479.8695	100	0.7717185000656173	1	0
435.2280244000722	0.8020287998951972	2	49	611480.8737	68.75	0.9741213	2	0
436.03005319996737	0.8021936001023278	2	49	611481.4537	100	0.7520474001066759	1	0
436.8322468000697	0.8016330999089405	2	49	611482.2324	100	0.7285832	1	0
437.63387989997864	0.800273	2	49	611483.2294	75	0.9239249000092968	2	0
438.4341529000085	0.7998238999862224	2	49	611483.8356	100	0.7298491999972612	1	0
439.2339767999947	0.7982559000374749	2	49	611484.5855	93.75	0.6799088000552729	1	0
440.0322327000322	0.8009905000217259	2	49	611485.4034	93.75	0.6996413000160828	1	0
440.8332232000539	0.8008998	1	49	611486.1685	87.5	0.6637458999175578	1	0
441.6341229999671	0.8009019000455737	2	49	611487.0186	93.75	0.7129121000180021	1	0
442.43502490001265	0.8014573999680579	2	49	611487.807	93.75	0.7003939000423998	1	0
443.2364822999807	0.8001942000119016	2	49	611488.6736	100	0.7655693	1	0
444.0366764999926	0.8014038000255823	2	49	611489.4667	100	0.7584782000631094	1	0
444.8380803000182	0.8028489999705926	2	49	611490.487	68.75	0.9773147000232711	2	0
445.6409292999888	0.8026417000219226	1	0	0	0	0	0	0
446.4435710000107	0.8006236	2	49	611491.9892	87.5	0.8740618999581784	2	0
447.24419460003264	0.7995853000320494	2	49	611492.709	93.75	0.7932458999566734	2	0
448.0437799000647	0.8017149999504909	2	49	611493.4241	93.75	0.7087244999129325	1	0
448.8454949000152	0.8030761999543756	1	0	0	0	0	0	0
449.64857109996956	0.8014963	2	49	611494.9529	87.5	0.6327383000170812	1	0
450.4500674	0.8002620000625029	2	49	611495.857	100	0.7353440000442788	1	0
451.2503294000635	0.8030653999885544	2	49	611496.8752	75	0.9532818	2	0
452.05339480005205	0.8013824999798089	1	49	611497.439	93.75	0.7140849999850616	1	0
452.85477730003186	0.8029210999375209	1	0	0	0	0	0	0
453.6576983999694	0.8014662000350654	2	49	611499.2019	87.5	0.8726566000841558	2	0
454.45916460000444	0.8016258999705315	2	49	611499.985	87.5	0.8543167000170797	2	0
455.2607905	0.8002955000847578	2	49	611500.8332	81.25	0.9008333	2	0
456.06108600005973	0.8005096999695525	2	49	611501.7244	68.75	0.9917817999375984	2	0
456.8615957000293	0.8030318999662995	2	49	611502.2393	93.75	0.7061311999568716	1	0
457.6646275999956	0.8021681000245735	1	0	0	0	0	0	0
458.46679570002016	0.8010790999978781	1	49	611503.777	87.5	0.6386684000026435	1	0
459.26787480001803	0.8026141000445932	2	49	611504.6039	87.5	0.6644755000015721	1	0
460.0704889000626	0.800559	1	0	0	0	0	0	0
460.87104790005833	0.8009983999654651	2	49	611506.2682	100	0.7255567999090999	1	0
461.6720463000238	0.8102393000153825	2	49	611507.1671	93.75	0.8234859999502078	2	0
462.4822856000392	0.8004721000324935	2	49	611507.9275	93.75	0.7736414	2	0
463.28275770007167	0.8000855999998748	2	49	611508.7192	100	0.7648709999630228	1	0
464.08284330007154	0.8001733999699354	2	49	611509.6203	87.5	0.8658533999696374	2	0
464.8830167000415	0.7997216	2	49	611510.2644	93.75	0.7098069000057876	1	0
465.68273830006365	0.7991798999719322	2	49	611511.3292	68.75	0.9748786999844015	2	0
466.4819182000356	0.8010802	2	49	611512.0134	87.5	0.8599232999840751	2	0
467.28299840004183	0.8051846	2	49	611512.8853	75	0.9306917	2	0
468.0881829999853	0.8040549	2	49	611513.6205	87.5	0.8607516000047326	2	0
468.8922379000578	0.8006768999621272	2	49	611514.3445	93.75	0.7806964999763295	2	0
469.69291480001993	0.8002267	2	49	611515.0176	87.5	0.6531681000487879	1	0
470.4931415000465	0.8018716999795288	2	49	611515.8554	93.75	0.6907152999192476	1	0
471.2950132	0.8014908999903128	2	49	611516.6485	93.75	0.6819221000187099	1	0
472.0965041000163	0.8017588000511751	2	49	611517.5244	100	0.7563456000061706	1	0
472.8982629000675	0.8005027	2	49	611518.3045	100	0.7346525999018922	1	0
473.69876559998374	0.8022105999989435	2	49	611519.3556	68.75	0.9852821	2	0
474.5009761999827	0.8008295	2	49	611519.9505	93.75	0.7779394000535831	2	0
475.30180570005905	0.7995123999426141	2	49	611520.67	93.75	0.6966404999839142	1	0
476.10131810000166	0.800671	2	49	611521.5806	93.75	0.8077517000492662	2	0
476.9019891000353	0.7980537000112236	2	49	611522.3375	100	0.7639362999470904	1	0
477.7000428000465	0.8017152999527752	1	0	0	0	0	0	0
478.5017580999993	0.8011538999853656	2	49	611523.9799	93.75	0.8065389000112191	2	0
479.30291199998464	0.8002655000891536	2	49	611524.7737	93.75	0.7991836000001058	2	0
480.1031775000738	n/a	0	0	0	0	0	0	0