onset	duration	cue	constant1	timestamp	stimulus_coherence	response_time	response	constant2
0.11844170000040322	0.7959608000001026	2	49	4909.304084	62.5	1.0473383999997168	2	0
0.9144025000005058	0.7972116999999344	2	49	4909.761877	93.75	0.7091705999991973	1	0
1.7116142000004402	0.7962289999995846	2	49	4910.437027	81.25	0.5871087999994415	1	0
2.507843200000025	0.7944929000004777	2	49	4911.078092	62.5	0.4319445999999516	1	0
3.3023361000005025	0.7964998999996169	2	49	4911.819199	56.25	0.37855839999974705	1	0
4.098836000000119	0.7964370999998209	2	49	4912.790201	75	0.5530603999995947	1	0
4.8952731	0.7960308000001532	2	49	4913.569077	75	0.5354996000005485	1	0
5.691303900000094	0.7957533999997395	2	49	4914.412169	81.25	0.5825611000000208	1	0
6.487057299999833	0.7964115000004313	2	49	4915.186423	75	0.5610614000006535	1	0
7.283468800000264	0.7966936000002534	2	49	4916.067605	87.5	0.6458322999997108	1	0
8.080162400000518	0.7961429999995744	2	49	4916.905301	93.75	0.6868340999999418	1	0
8.876305400000092	0.7960966000000553	2	49	4917.770384	100	0.7557747000000745	1	0
9.672402000000147	0.7948881000002075	2	49	4918.525366	93.75	0.7146600999994916	1	0
10.467290100000355	0.7959786000001259	2	49	4919.307598	93.75	0.7020032999998875	1	0
11.26326870000048	0.7964372999995248	2	49	4920.203359	93.75	0.8017856999995274	2	0
12.059706000000006	0.7965032000001884	2	49	4920.965903	93.75	0.7678925000000163	2	0
12.856209200000194	0.7961967999999615	2	49	4921.691398	93.75	0.6968850000002931	1	0
13.652406000000155	0.7959795999995549	1	0	0	0	0	0	0
14.44838559999971	0.7957482000001619	2	49	4922.907609	50	0.3209193000002415	1	0
15.244133799999872	0.7954832000004899	2	49	4924.08372	93.75	0.7012819	1	0
16.039617000000362	0.8692405	2	49	4924.807766	75	0.6298452999999427	1	0
16.908857500000522	0.7959936	2	49	4925.5695	75	0.5223381999994672	1	0
17.70485110000027	0.7957575000000361	1	49	4926.509621	93.75	0.6664660999995249	1	0
18.500608600000305	0.7969306999993933	2	49	4927.312539	93.75	0.6736264999999548	1	0
19.2975393	0.7962696000004144	2	49	4928.144763	93.75	0.7089198000003307	1	0
20.093808900000113	0.7962687999997797	1	49	4928.977676	100	0.7455625000002328	1	0
20.890077699999893	0.7959971999998743	2	49	4929.790897	100	0.7625146999998833	1	0
21.686074899999767	0.7956141000004209	2	49	4930.386701	75	0.5623215000005075	1	0
22.481689000000188	0.7955798000002687	2	49	4931.192602	81.25	0.5726090999996813	1	0
23.277268800000456	0.7957770999992135	2	49	4932.053635	87.5	0.6380620999998428	1	0
24.07304589999967	0.7962641000003714	2	49	4933.070645	87.5	0.8592952000008154	2	0
24.86931000000004	0.7957364000003508	2	49	4933.88377	81.25	0.8761555000000953	2	0
25.665046400000392	0.7964366999995036	2	49	4934.819421	62.5	1.0160701999993762	2	0
26.461483099999896	0.7952663000005487	2	49	4935.440944	87.5	0.8411564	2	0
27.256749400000444	0.7962045999993279	2	49	4936.203951	93.75	0.8088971	2	0
28.052953999999772	0.7960671999999249	2	49	4936.998826	93.75	0.8075683000006393	2	0
28.849021199999697	0.7964758	2	49	4937.858075	81.25	0.8707494000000224	2	0
29.645497000000432	0.796955	2	49	4938.452746	87.5	0.6689450999992914	1	0
30.44245200000023	0.7961043999994217	2	49	4939.365005	93.75	0.7842491999999766	2	0
31.238556399999652	0.7966962000000422	2	49	4940.095981	100	0.7191203000002133	1	0
32.035252599999694	0.7951113000008263	2	49	4940.956117	93.75	0.7825602000002618	2	0
32.83036390000052	0.7964711999993597	2	49	4941.764213	93.75	0.7955448999991859	2	0
33.62683509999988	0.7965715000000273	2	49	4942.596037	87.5	0.8308981000000131	2	0
34.42340659999991	0.7973118999998405	2	49	4943.608125	62.5	1.046414299999924	2	0
35.22071849999975	0.7969609000001583	2	49	4944.063532	93.75	0.7045090000001437	1	0
36.017679399999906	0.7961819000001924	2	49	4944.718283	75	0.5622991999998703	1	0
36.8138613	0.7964952000002086	1	49	4945.542151	81.25	0.5899853000000803	1	0
37.61035650000031	0.7963315999995757	2	49	4946.302347	75	0.5536861000000499	1	0
38.40668809999988	0.7956869999998162	2	49	4947.11114	75	0.5661478000001807	1	0
39.2023751	0.7953692999999475	1	49	4948.08324	100	0.7425610000000233	1	0
39.99774439999965	0.7968263	2	49	4948.922516	93.75	0.7864679000003889	2	0
40.794570699999895	0.7962168000003658	2	49	4949.588543	87.5	0.6556681000001845	1	0
41.59078750000026	0.7964296999998624	2	49	4950.455506	100	0.7264147999994748	1	0
42.38721720000012	0.7966533	2	49	4951.269547	100	0.7440257999996902	1	0
43.18387050000001	0.7969315000000279	2	49	4952.314277	68.75	0.9921024000004763	2	0
43.98080200000004	0.7975207	2	49	4952.929523	93.75	0.8104173000001538	2	0
44.77832269999999	0.7972563000002992	2	49	4953.583482	87.5	0.6668549000005441	1	0
45.57557900000029	0.7977928000000247	2	49	4954.359937	87.5	0.6460539999998218	1	0
46.373371800000314	0.7979973999999856	2	49	4955.286475	93.75	0.7747994999999719	2	0
47.1713692	0.7972820999993928	2	49	4956.107615	93.75	0.7979416999996829	2	0
47.96865129999969	0.7956067000004623	2	49	4956.928682	87.5	0.8217263000005914	2	0
48.764258000000154	0.7955671999998231	2	49	4957.769636	81.25	0.8670740999996269	2	0
49.55982519999998	0.7958693000000494	2	49	4958.503752	93.75	0.8056222000004709	2	0
50.35569450000003	0.7967054000000644	2	49	4959.308743	93.75	0.8147444	2	0
51.15239990000009	0.7957968000000619	1	0	0	0	0	0	0
51.94819670000015	0.7954651999998532	2	49	4960.505705	56.25	0.4192038000001048	1	0
52.743661900000006	0.7964247999998406	2	49	4961.623716	100	0.7417500000001382	1	0
53.54008669999985	0.7969696000000113	1	49	4962.274314	81.25	0.5959235999998782	1	0
54.33705629999986	0.7962431000005381	1	49	4963.028668	75	0.5533077000000048	1	0
55.133299400000396	0.7959741	2	49	4964.145718	81.25	0.8741148999997677	2	0
55.92927349999991	0.7960473000002821	1	0	0	0	0	0	0
56.72532080000019	0.79592	2	49	4965.60481	100	0.7411851999995633	1	0
57.52124079999976	0.7957120999999461	2	49	4966.484738	87.5	0.8251929000007294	2	0
58.316952899999706	0.7960263000004488	2	49	4967.235995	93.75	0.7807383	2	0
59.112979200000154	0.7951259000001301	2	49	4968.022967	93.75	0.7716835000001083	2	0
59.908105100000284	0.7959550999994462	1	0	0	0	0	0	0
60.70406019999973	0.7959516000000804	2	49	4969.613804	93.75	0.7714392000007138	2	0
61.50001179999981	0.7954807	2	49	4970.367926	100	0.7296104	1	0
62.295492500000364	0.7956586999998763	2	49	4971.258943	87.5	0.8251467999998567	2	0
63.09115120000024	0.7959888999994291	1	0	0	0	0	0	0
63.88714009999967	0.7953357000005781	2	49	4972.596247	81.25	0.5708028000008198	1	0
64.68247580000025	0.7957562000001417	2	49	4973.482222	87.5	0.6614417000000685	1	0
65.47823200000039	0.7960541	2	49	4974.297996	93.75	0.6814598000000842	1	0
66.2742861	0.7959656000002724	2	49	4975.11122	93.75	0.6986294000007547	1	0
67.07025169999997	0.7966530000003331	2	49	4976.079296	81.25	0.8707405000004655	2	0
67.8669047	0.7963313000000198	2	49	4976.814482	93.75	0.8092728000001443	2	0
68.66323600000032	0.7954891999997926	2	49	4977.785128	68.75	0.9835881999997582	2	0
69.45872520000012	0.7958471000001737	2	49	4978.386199	93.75	0.7891698000003089	2	0
70.25457230000029	0.7961921999994956	2	49	4979.223441	87.5	0.8305641999995714	2	0
71.05076449999979	0.7960467000002609	2	49	4980.023229	87.5	0.8341608000000633	2	0
71.84681120000005	0.7963458000003811	2	49	4980.976261	68.75	0.9911451999996643	2	0
72.64315700000043	0.7963219999992361	2	49	4981.53121	100	0.7497488999997586	1	0
73.43947899999966	0.7964429000003292	2	49	4982.165178	81.25	0.5873953000000256	1	0
74.2359219	0.7959104000001389	2	49	4982.927438	75	0.5532115000005433	1	0
75.03183230000013	0.7966397999998662	2	49	4984.156348	68.75	0.9862118000000919	2	0
75.8284721	0.7970005	2	49	4984.635575	93.75	0.6687987000004796	1	0
76.62547259999974	0.7957448	1	49	4985.446524	93.75	0.6827472000004491	1	0
77.42121740000039	0.7967079999998532	2	49	4986.359347	93.75	0.7998252999996112	2	0
78.21792540000024	0.7965603000002375	1	49	4987.062368	93.75	0.7061385999995764	1	0
79.01448570000048	0.7967762999996921	2	49	4987.832584	93.75	0.6797941999993782	1	0
79.81126200000017	0.7962222999994992	2	49	4988.693715	100	0.7441486999996414	1	0
80.60748429999967	0.7951487	2	49	4989.504029	100	0.7582410000004529	1	0
81.402633	0.7967293000001519	2	49	4990.27648	100	0.7355430000006891	1	0
82.19936229999985	0.7960624000006646	2	49	4991.185592	87.5	0.8479254000003493	2	0
82.99542470000051	0.7959002999996301	2	49	4991.833654	93.75	0.6999247999992804	1	0
83.79132500000014	0.7972890999999436	2	49	4992.802518	81.25	0.8728884000001926	2	0
84.58861410000009	0.7953936000003523	2	49	4993.605739	81.25	0.8788205000000744	2	0
85.38400770000044	0.7963614000000234	1	0	0	0	0	0	0
86.18036910000046	0.7959778999993432	1	49	4994.770795	62.5	0.4521218999998382	1	0
86.976347	0.7956517	2	49	4995.847804	100	0.7331529000002774	1	0
87.77199870000004	0.7964327999998204	1	0	0	0	0	0	0
88.56843149999986	0.7965246	2	49	4997.31302	81.25	0.6062839000005624	1	0
89.3649561	0.7960765999996511	2	49	4998.515813	68.75	1.012553100000332	2	0
90.16103269999985	0.7965357000002768	1	0	0	0	0	0	0
90.95756840000013	0.7957875000001877	2	49	4999.908085	93.75	0.8122120999996696	2	0
91.75335590000032	0.7961194999998042	2	49	5000.918141	62.5	1.0264806999994107	2	0
92.54947540000012	0.7957777000001443	2	49	5001.435016	100	0.7472367999998824	1	0
93.34525310000026	0.7955787000000782	2	49	5002.20989	100	0.7263326000002053	1	0
94.14083180000034	0.7956856000000698	2	49	5003.124155	87.5	0.8450191000001723	2	0
94.93651740000041	0.7978847999993377	2	49	5003.903007	87.5	0.8281849999993938	2	0
95.73440219999975	0.7957982000007178	2	49	5004.838076	75	0.9653693000000203	2	0
96.53020040000047	0.7969129	1	0	0	0	0	0	0
97.32711329999984	0.7956712	2	49	5006.257077	93.75	0.7916594	2	0
98.12278450000031	0.7957560999993802	2	49	5006.972268	93.75	0.7111790999997538	1	0
98.91854059999969	0.7963964000000487	1	0	0	0	0	0	0
99.71493699999974	0.7962336999999025	2	49	5008.388322	75	0.5350806000005832	1	0
100.51117069999964	0.7957275	1	49	5009.244378	81.25	0.5949033000006239	1	0
101.30689820000043	0.7963929999996253	2	49	5010.295205	87.5	0.8500022999996872	2	0
102.10329120000006	0.7970864999997502	2	49	5011.022337	93.75	0.7807417000003625	2	0
102.90037769999981	0.7959817999999359	2	49	5011.907486	81.25	0.8688044000000446	2	0
103.69635949999974	0.7959252000000561	2	49	5012.793598	75	0.9589340000002267	2	0
104.4922846999998	0.7956818000002386	2	49	5013.471374	87.5	0.8407852999998795	2	0
105.28796650000004	0.7959239000001617	2	49	5014.36948	75	0.9432093000004897	2	0
106.0838904000002	0.7966692999998486	2	49	5015.179991	75	0.9577966999995624	2	0
106.88055970000005	0.7971141999996689	2	49	5015.905395	81.25	0.8865315000002738	2	0
107.67767389999972	0.7966564000007565	2	49	5016.613492	93.75	0.7975137000003087	2	0
108.47433030000047	0.7964622999998028	1	0	0	0	0	0	0
109.27079260000028	0.7964485000002242	2	49	5018.01597	81.25	0.6068734000000404	1	0
110.0672411000005	0.7968629999995755	1	49	5018.776749	81.25	0.5712039999998524	1	0
110.86410410000008	0.7966079999996509	2	49	5019.568739	75	0.5663303999999698	1	0
111.66071209999973	0.7962827999999718	1	49	5020.473648	93.75	0.6746318000004976	1	0
112.4569948999997	0.7960775000001377	2	49	5021.317863	100	0.7225641000004543	1	0
113.25307239999984	0.7959581000004619	1	49	5022.090537	93.75	0.6991609000006065	1	0
114.0490305000003	0.7970659000002343	2	49	5022.890074	93.75	0.7027397000001656	1	0
114.84609640000053	0.7961847999995371	2	49	5023.993052	68.75	1.0086510999999518	2	0
115.64228120000007	0.7965084	2	49	5024.636917	87.5	0.8563317999996798	2	0
116.43878959999984	0.7972422000002553	1	0	0	0	0	0	0
117.23603180000009	0.7955180999997538	1	49	5025.923703	75	0.549367	1	0
118.03154989999985	0.7965523000002577	2	49	5026.980008	93.75	0.8101535000005242	2	0
118.8281022000001	0.7967526000002181	2	49	5027.789812	87.5	0.8234056000001146	2	0
119.62485480000032	0.7965161000001899	2	49	5028.748711	68.75	0.9855517999994845	2	0
120.42137090000051	0.7958082999994076	2	49	5029.302921	100	0.7432459999999992	1	0
121.21717919999992	0.7976580000004105	2	49	5030.214886	87.5	0.8594031	2	0
122.01483720000033	0.7957513	2	49	5030.988887	87.5	0.8357452000000194	2	0
122.81058850000045	0.7968907999993462	2	49	5031.770284	87.5	0.8213914999996632	2	0
123.6074792999998	0.7964101000006849	2	49	5032.589328	87.5	0.8435447000001659	2	0
124.40388940000048	0.7960661999995864	2	49	5033.35851	93.75	0.8163167999991856	2	0
125.19995560000007	0.7964955999996164	2	49	5034.254162	81.25	0.9159018999998807	2	0
125.99645119999968	0.7970222	2	49	5035.020028	81.25	0.8852726000004623	2	0
126.79347340000004	0.7969443000001775	2	49	5035.8591	75	0.9273228000001836	2	0
127.59041770000022	0.7973326	1	0	0	0	0	0	0
128.38775030000033	0.7963285999994696	2	49	5037.426086	81.25	0.9000310999999783	2	0
129.1840788999998	0.7969889000005423	2	49	5038.211118	81.25	0.8887353000000076	2	0
129.98106780000035	0.7962366000001566	2	49	5038.879437	100	0.7600646999999299	1	0
130.7773044000005	0.7969195999994554	2	49	5039.758414	87.5	0.8428050999991683	2	0
131.57422399999996	0.7969389999998384	1	0	0	0	0	0	0
132.3711629999998	0.7962236000003031	2	49	5041.217561	93.75	0.7080937999999151	1	0
133.1673866000001	0.7957663	2	49	5042.224534	75	0.9188433999997869	2	0
133.96315289999984	0.7974062000002959	2	49	5042.995587	81.25	0.8941295000004175	2	0
134.76055910000014	0.7958321999994951	2	49	5043.841451	75	0.942588	2	0
135.55639129999963	0.7962817000006908	2	49	5044.428415	100	0.7337200000001758	1	0
136.35267300000032	0.7963043999998263	2	49	5045.218388	100	0.7274106999993819	1	0
137.14897740000015	0.7972590999997919	2	49	5045.999616	93.75	0.7123341999995318	1	0
137.94623649999994	0.7957766999998057	2	49	5046.874471	93.75	0.7899308000005476	2	0
138.74201319999975	0.7972566000007646	2	49	5047.705449	87.5	0.8251312000002144	2	0
139.5392698000005	0.7959215999999287	2	49	5048.498584	87.5	0.8210101	2	0
140.33519140000044	0.7966165	2	49	5049.27344	93.75	0.7999444999995831	2	0
141.13180790000024	0.7976484	2	49	5050.167654	81.25	0.8975423000001683	2	0
141.9294563000003	0.7969828999994206	2	49	5051.038724	68.75	0.9709634999999253	2	0
142.72643919999973	0.7972878999999011	2	49	5051.62065	100	0.7559066	1	0
143.52372709999963	0.7964026000008744	2	49	5052.333602	93.75	0.6715706000004502	1	0
144.3201297000005	0.7956042999994679	2	49	5053.217665	100	0.7592310999998517	1	0
145.11573399999997	0.7970305999997436	2	49	5054.010684	100	0.7566457000002629	1	0
145.91276459999972	0.7972773999999845	2	49	5054.823736	93.75	0.7726675000003524	2	0
146.7100419999997	0.7960038999999597	1	0	0	0	0	0	0
147.50604589999966	0.7966106000003492	2	49	5056.463938	87.5	0.8195875999999771	2	0
148.3026565	0.7966532	2	49	5057.070716	87.5	0.6297558	1	0
149.09930970000005	0.7970200999998269	2	49	5058.032515	93.75	0.7949011	2	0
149.89632979999988	0.7973726	1	49	5058.725852	93.75	0.6912179999999353	1	0
150.6937023999999	0.7972633999997925	2	49	5059.619857	93.75	0.7878501	2	0
151.49096579999969	0.7965993000007074	2	49	5060.300842	93.75	0.6715718000004927	1	0
152.2875651000004	0.7974995999993553	1	49	5061.06287	87.5	0.6370010999999067	1	0
153.08506469999975	0.7959966000007626	2	49	5061.932858	93.75	0.7094893	1	0
153.8810613000005	0.7975878999995984	2	49	5062.871252	87.5	0.8518863999997848	2	0
154.6786492000001	0.7963088999995307	2	49	5063.742067	75	0.9251131999999416	2	0
155.47495809999964	0.7978182	2	49	5064.297181	93.75	0.6839191000008213	1	0
156.27277630000026	0.7970027	2	49	5065.062001	87.5	0.6509203999994497	1	0
157.06977900000038	0.7965076000000408	2	49	5065.933949	100	0.7258661999994729	1	0
157.86628660000042	0.7964259000000311	2	49	5066.679129	93.75	0.6745387000000846	1	0
158.66271250000045	0.7960471999995207	2	49	5067.51932	100	0.7183035999996719	1	0
159.45875969999997	0.7965758000000278	2	49	5068.26829	93.75	0.6712261	1	0
160.2553355	0.7964700000002267	2	49	5069.133091	100	0.7394516000003932	1	0
161.05180550000023	0.7967694999997548	2	49	5070.016087	87.5	0.8259777000002941	2	0
161.84857499999998	0.7967713999996704	2	49	5070.732365	100	0.7454853999997795	1	0
162.64534639999965	0.7970601000006354	2	49	5071.508321	100	0.7246708	1	0
163.4424065000003	0.7954517999996824	2	49	5072.224283	87.5	0.6435726999998224	1	0
164.23785829999997	0.7960623999997551	2	49	5073.019456	87.5	0.6432931999997891	1	0
165.03392069999973	0.7967367000001104	2	49	5074.185435	68.75	1.013209800000368	2	0
165.83065739999984	0.7959804000001895	2	49	5075.237331	31.25	1.2683691	2	0
166.62663780000003	0.7959344000000783	2	49	5075.802511	62.5	1.0375691999997798	2	0
167.4225722000001	0.7965483	2	49	5076.511653	75	0.9507769000001645	2	0
168.21912049999992	0.7962962000001426	2	49	5077.451687	56.25	1.0942622000002302	2	0
169.01541670000006	0.7965647999999419	2	49	5078.025415	81.25	0.8716946	2	0
169.8119815	0.7962643999999273	2	49	5078.801583	87.5	0.8512971000000107	2	0
170.60824589999993	0.7960579999999027	2	49	5079.558566	93.75	0.8120160999997097	2	0
171.40430389999983	0.7970654	2	49	5080.276576	100	0.7339675000002899	1	0
172.2013692999999	0.7972380000001067	2	49	5081.065583	100	0.7259100000001126	1	0
172.9986073	0.7968418000000383	2	49	5081.80962	93.75	0.6727083000005223	1	0
173.79544910000004	0.7969020000000455	1	49	5082.588652	87.5	0.6548983000002409	1	0
174.5923511000001	0.7963966999996046	2	49	5083.314648	81.25	0.5839930000001914	1	0
175.3887477999997	0.7966111000005185	2	49	5084.077706	75	0.5506539000007251	1	0
176.1853589000002	0.7961158999996769	1	49	5084.887639	75	0.5639758999996047	1	0
176.9814747999999	0.7958300000000236	2	49	5085.683719	75	0.5639396000005945	1	0
177.7773047999999	0.7965737000004083	1	49	5086.411362	68.75	0.4957531999998537	1	0
178.57387850000032	0.7958153999998103	2	49	5087.279677	75	0.5674946999997701	1	0
179.36969390000013	0.7962160999995831	2	49	5088.166013	87.5	0.6580149999999776	1	0
180.1659099999997	0.796596	1	0	0	0	0	0	0
180.96250599999985	0.7962563999999475	2	49	5089.733009	87.5	0.6321993000001385	1	0
181.7587623999998	0.7962002000003849	2	49	5090.533796	87.5	0.6367298000004666	1	0
182.55496260000018	0.7963700999998764	2	49	5091.518749	87.5	0.8254822999997486	2	0
183.35133270000006	0.7958108	2	49	5092.238751	100	0.7491139000003386	1	0
184.1471435000003	0.7965409999997064	2	49	5093.050097	100	0.7646495	1	0
184.94368450000002	0.7975182999998651	2	49	5093.852309	93.75	0.7703207000004113	2	0
185.74120279999988	0.7958182000002125	2	49	5094.616945	100	0.7374377000005552	1	0
186.5370210000001	0.7965782000001127	1	0	0	0	0	0	0
187.3335992000002	0.7964747	2	49	5095.938133	62.5	0.4662295999996786	1	0
188.13007389999984	0.7962567000004128	2	49	5097.056896	93.75	0.7885175999999774	2	0
188.92633060000026	0.7962121999998999	2	49	5097.914111	87.5	0.8494761000001745	2	0
189.72254280000016	0.7955756999999721	2	49	5098.642089	93.75	0.7812425000001895	2	0
190.51811850000013	0.7961808999998539	2	49	5099.477149	87.5	0.8207264000002397	2	0
191.31429939999998	0.7965638000005129	2	49	5100.298344	87.5	0.8457399999997506	2	0
192.1108632000005	0.7970945	2	49	5101.100075	87.5	0.8509080999992875	2	0
192.90795770000022	0.7968915000001289	1	0	0	0	0	0	0
193.70484920000035	0.7972276	2	49	5102.115144	43.75	0.27199039999959496	1	0
194.5020768000004	0.7964416999993773	2	49	5103.101235	62.5	0.46085429999948246	1	0
195.29851849999977	0.7967584000007264	1	49	5104.038239	81.25	0.6014166000004479	1	0
196.0952769000005	0.7948499999993146	2	49	5104.824995	81.25	0.5914136999999755	1	0
196.8901268999998	0.7957222000004549	2	49	5105.751223	100	0.7227923000000374	1	0
197.68584910000027	0.7964432999997371	2	49	5106.686556	87.5	0.8624024999999165	2	0
198.4822924	0.7962814000002254	2	49	5107.413691	93.75	0.7930942000002688	2	0
199.27857380000023	0.7961477999997442	2	49	5108.21532	93.75	0.7984421000001021	2	0
200.07472159999998	0.7965142000002743	2	49	5109.113664	81.25	0.9006384000003891	2	0
200.87123580000025	0.7956205999998929	2	49	5109.896472	81.25	0.8869317999997293	2	0
201.66685640000014	0.7956475999999384	2	49	5110.650497	87.5	0.8453360000003158	2	0
202.46250400000008	0.7963266	2	49	5111.479538	81.25	0.8787302000000636	2	0
203.25883059999978	0.7962812000005215	2	49	5112.317504	75	0.9203694	2	0
204.0551118000003	0.7972487999995792	2	49	5113.142634	75	0.9492177000001902	2	0
204.85236059999988	0.7967030999998315	2	49	5113.926624	75	0.9359588	2	0
205.64906369999972	0.7973830000000817	2	49	5114.771782	68.75	0.9844146000004912	2	0
206.4464466999998	0.7968940000000657	2	49	5115.581624	68.75	0.9968736000000717	2	0
207.24334069999986	0.7975851000001057	2	49	5116.340398	75	0.9587527	2	0
208.04092579999997	0.7961266	2	49	5117.008867	87.5	0.8296372	2	0
208.83705240000018	0.7959112	2	49	5117.88883	81.25	0.9134733999999298	2	0
209.63296360000004	0.7972491999998965	1	0	0	0	0	0	0
210.43021279999994	0.7970900999998776	2	49	5119.171838	81.25	0.6033212000002095	1	0
211.2273028999998	0.7960892999999487	1	0	0	0	0	0	0
212.02339219999976	0.7959373000003325	2	49	5120.820436	87.5	0.6587397000002966	1	0
212.8193295000001	0.7966270999995686	2	49	5121.484689	75	0.5270553000000291	1	0
213.61595659999966	0.7957677000003969	2	49	5122.399794	87.5	0.6455336000008174	1	0
214.41172430000006	0.7966796000000613	2	49	5123.32099	93.75	0.7709619999995994	2	0
215.20840390000012	0.7965679	1	0	0	0	0	0	0
216.00497180000002	0.7971020000004501	2	49	5124.792001	87.5	0.6487250000000131	1	0
216.80207380000047	0.7975207	2	49	5125.582907	87.5	0.6425290999995923	1	0
217.59959450000042	0.7969909999992524	2	49	5126.531634	93.75	0.7937352999997529	2	0
218.39658549999967	0.7969554999999673	2	49	5127.384026	87.5	0.8491364	2	0
219.19354099999964	0.7969012000003204	2	49	5128.185185	87.5	0.8533401000004233	2	0
219.99044219999996	0.7967994000000544	2	49	5129.067092	75	0.9383453000000372	2	0
220.78724160000002	0.7965868999999657	2	49	5129.717212	93.75	0.7916664000003948	2	0
221.58382849999998	0.7980152000000089	2	49	5130.722257	68.75	1.0001241999998456	2	0
222.3818437	0.7975784000000203	2	49	5131.639407	50	1.1192595000002257	2	0
223.1794221	0.7981638000001112	2	49	5132.296251	68.75	0.9785250000004453	2	0
223.97758590000012	0.7970778999997492	1	0	0	0	0	0	0
224.77466379999987	0.7967242000004262	2	49	5133.365354	62.5	0.4523863000003985	1	0
225.5713880000003	0.7965629000000263	2	49	5134.180392	68.75	0.47070029999940743	1	0
226.36795090000032	0.7982862999997451	2	49	5135.167399	87.5	0.6611441999993986	1	0
227.16623720000007	0.7967839000002641	2	49	5136.053352	100	0.7488106999999218	1	0
227.96302110000033	0.7967971999996735	2	49	5136.894446	93.75	0.7931211999994048	2	0
228.7598183	0.7968440000004193	2	49	5137.670637	93.75	0.7725141999999323	2	0
229.55666230000043	0.7965586000000258	2	49	5138.530295	87.5	0.8353289999995468	2	0
230.35322090000045	0.7972818999996889	2	49	5139.302631	93.75	0.8111056999996435	2	0
231.15050280000014	0.7979146999996374	2	49	5140.05821	93.75	0.7694029000003866	2	0
231.94841749999978	0.7979952000005142	2	49	5140.911411	87.5	0.8246893000005002	2	0
232.7464127000003	0.7975589999996373	2	49	5141.58028	93.75	0.6955626999997548	1	0
233.54397169999993	0.7963068999997631	1	49	5142.305552	87.5	0.6232762999998158	1	0
234.3402785999997	0.7960275000004913	2	49	5143.165677	93.75	0.6870946000008189	1	0
235.13630610000018	0.7975781	2	49	5144.053593	93.75	0.7789823000002798	2	0
235.93388419999974	0.7963156000005256	2	49	5144.952552	81.25	0.8803635000003851	2	0
236.73019980000026	0.7965520999996443	2	49	5145.62272	100	0.7542161999999735	1	0
237.5267518999999	0.7968153000001621	2	49	5146.37178	93.75	0.7067241000004287	1	0
238.32356720000007	0.7963670999997703	2	49	5147.084521	87.5	0.6226494000002276	1	0
239.11993429999984	0.7971211000003677	2	49	5147.986666	100	0.7284279000004972	1	0
239.9170554000002	0.7964216000000306	1	0	0	0	0	0	0
240.71347700000024	0.7967658999996274	2	49	5149.325597	68.75	0.4738158000000112	1	0
241.51024289999987	0.7962680999999066	2	49	5150.424809	93.75	0.7762622999998712	2	0
242.30651099999977	0.7965785000005781	2	49	5151.206752	100	0.7619367000006605	1	0
243.10308950000035	0.7967115999999805	2	49	5152.082938	87.5	0.8415439999998853	2	0
243.89980110000033	0.7962723999999071	2	49	5152.885951	87.5	0.8478457000001072	2	0
244.69607350000024	0.7958791999999448	2	49	5153.66098	87.5	0.8266025000002628	2	0
245.49195270000018	0.7957033000002411	2	49	5154.44695	93.75	0.8166930999996111	2	0
246.28765600000042	0.7971963	2	49	5155.329258	81.25	0.9032982	2	0
247.08485230000042	0.7956930999998804	1	0	0	0	0	0	0
247.8805454000003	0.7963407	1	49	5156.764272	100	0.7454222999995181	1	0
248.67688610000005	0.7966157999999268	2	49	5157.738899	75	0.9237088999998377	2	0
249.47350189999997	0.7964928000001237	2	49	5158.323268	93.75	0.7114621999999144	1	0
250.2699947000001	0.7968604999996387	2	49	5159.041132	87.5	0.6328331000004255	1	0
251.06685519999974	0.7968428000003769	2	49	5159.690196	68.75	0.48503660000005766	1	0
251.8636980000001	0.7975901999998314	2	49	5160.501046	68.75	0.4990439	1	0
252.66128819999994	0.7983484000005774	2	49	5161.4781	93.75	0.6785079999999653	1	0
253.45963660000052	0.7976664999996501	2	49	5162.414188	93.75	0.8162470999996003	2	0
254.25730310000017	0.7963954999995622	2	49	5163.122066	100	0.7264588999996704	1	0
255.05369859999973	0.7966660000001866	1	0	0	0	0	0	0
255.85036459999992	0.7971066999998584	2	49	5164.421819	62.5	0.43315010000060283	1	0
256.6474712999998	0.7962611000002653	2	49	5165.489223	93.75	0.7034479000003557	1	0
257.44373240000004	0.7970973999999842	2	49	5166.230299	87.5	0.6482619999997041	1	0
258.24082980000003	0.7966198000003715	1	49	5167.034166	87.5	0.6550323000001299	1	0
259.0374496000004	0.7959485999999742	1	49	5167.924269	100	0.7485147999996116	1	0
259.8333982000004	0.7963461	2	49	5168.841575	81.25	0.8698723999996218	2	0
260.6297443000003	0.7969746999997369	2	49	5169.550352	93.75	0.7823035000001255	2	0
261.42671900000005	0.7971095000002606	2	49	5170.36061	93.75	0.7955869999996139	2	0
262.2238285000003	0.7973619999993389	2	49	5171.222627	87.5	0.8604946999994354	2	0
263.02119049999965	0.7982721000007587	2	49	5172.005566	87.5	0.8460718000005727	2	0
263.8194626000004	0.7969593999996505	2	49	5173.076651	50	1.1188840999993772	2	0
264.61642200000006	0.7981281000002127	2	49	5173.635511	81.25	0.8807846999998219	2	0
265.41455010000027	0.7965726000002178	2	49	5174.632231	56.25	1.0793769000001703	2	0
266.2111227000005	0.7968448	2	49	5175.470575	50	1.1211479999992662	2	0
267.0079674999997	0.7961742	2	49	5176.044682	81.25	0.8984103000002506	2	0
267.8041417000004	0.7973063999997976	2	49	5176.863561	75	0.9211150999999518	2	0
268.6014481000002	0.7972516999998334	2	49	5177.701524	75	0.9617720999995072	2	0
269.39869980000003	0.7971293000000514	2	49	5178.442835	81.25	0.9058307000004788	2	0
270.1958291000001	0.7972338999998101	1	0	0	0	0	0	0
270.9930629999999	0.7971246000006431	2	49	5179.627782	68.75	0.4964144000005035	1	0
271.79018760000054	0.7968646999997873	1	49	5180.393783	62.5	0.46529089999967255	1	0
272.5870523000003	0.7986155999997209	1	49	5181.274938	75	0.5495818999997937	1	0
273.38566790000004	0.7971774999996342	2	49	5182.226957	93.75	0.7029847000003429	1	0
274.1828453999997	0.7969232000004922	2	49	5182.991043	93.75	0.6698931000000812	1	0
274.97976860000017	0.7971039000003657	2	49	5183.634961	68.75	0.5168880999999601	1	0
275.77687250000054	0.7971803999998883	2	49	5184.371989	62.5	0.4568119999994451	1	0
276.5740529000004	0.7963704999992842	1	49	5185.324021	81.25	0.6116636999995535	1	0
277.3704233999997	0.7968358000007356	2	49	5186.206049	93.75	0.6973213000001124	1	0
278.16725920000044	0.7957398999997167	2	49	5187.237842	75	0.9322786999991877	2	0
278.96299910000016	0.7958731999997326	2	49	5187.888995	93.75	0.7876917000003232	2	0
279.7588722999999	0.7958399	2	49	5188.684052	93.75	0.7868759000002683	2	0
280.5547121999998	0.7960330000005342	2	49	5189.516015	87.5	0.8229988000002777	2	0
281.35074520000035	0.7965946999993321	2	49	5190.188209	93.75	0.6991594000000987	1	0
282.1473398999997	0.7970709999999599	2	49	5191.132072	87.5	0.8464275000005728	2	0
282.94441089999964	0.7975345000004381	1	0	0	0	0	0	0
283.7419454000001	0.7980500000003303	1	49	5192.451387	81.25	0.5711373000003732	1	0
284.5399954000004	0.7966287999997803	2	49	5193.437361	100	0.7590618999993239	1	0
285.3366242000002	0.7972822000001543	2	49	5194.188166	93.75	0.7132375000001048	1	0
286.13390640000034	0.7976095	2	49	5194.833381	75	0.5611706999998205	1	0
286.9315158999998	0.7970906999998988	2	49	5195.585454	68.75	0.5156341000001703	1	0
287.7286065999997	0.7974690999999439	2	49	5196.482664	81.25	0.6157528000003367	1	0
288.52607569999964	0.7964601000003313	2	49	5197.302286	87.5	0.6379060000008394	1	0
289.32253579999997	0.7968835000001491	2	49	5198.342286	81.25	0.8814456999998583	2	0
290.1194193000001	0.7974500000000262	2	49	5198.982273	100	0.7245498000002044	1	0
290.91686930000014	0.7962864000000991	2	49	5199.781264	100	0.7260906999999861	1	0
291.71315570000024	0.7967345999995814	2	49	5200.552263	93.75	0.7008027000001675	1	0
292.5098902999998	0.7972091000001456	2	49	5201.146502	68.75	0.4983071000006021	1	0
293.30709939999997	0.7965231999996831	2	49	5202.055848	81.25	0.6104447	1	0
294.10362259999965	0.798399	2	49	5202.75281	68.75	0.5108836000008523	1	0
294.9020215999999	0.7969632000003912	2	49	5203.446471	56.25	0.4061453000003894	1	0
295.6989848000003	0.7981589000000895	2	49	5204.26358	62.5	0.4262905999994473	1	0
296.4971437000004	0.7974776000000929	2	49	5205.69491	62.5	1.0594621000000188	2	0
297.2946213000005	0.7975455999994665	2	49	5206.471627	62.5	1.0387014999996609	2	0
298.09216689999994	0.7969663000003493	2	49	5207.17665	75	0.9461792000001878	2	0
298.8891332000003	0.7969554999999673	1	0	0	0	0	0	0
299.68608870000025	0.7972708	1	49	5208.473638	87.5	0.6492449999996097	1	0
300.4833595	0.7967793999996502	1	49	5209.371578	100	0.7499144000003071	1	0
301.28013889999966	0.7969300000004296	2	49	5210.381805	75	0.9633623000008811	2	0
302.0770689000001	0.7964203999999881	2	49	5211.137654	75	0.9222804999999425	2	0
302.8734893000001	0.7969810000004145	2	49	5212.006802	68.75	0.9950089000003572	2	0
303.6704703000005	0.7969632999993337	2	49	5212.719042	81.25	0.9102671	2	0
304.4674335999998	0.7969233000003442	2	49	5213.392717	93.75	0.7869797000003018	2	0
305.26435690000017	0.7964657000002262	2	49	5214.209579	93.75	0.8069182999997793	2	0
306.0608226000004	0.7959550999994462	2	49	5214.927836	100	0.7287096	1	0
306.85677769999984	0.7972988000001351	2	49	5215.849215	87.5	0.8541328999999678	2	0
307.6540765	0.7978880999999092	2	49	5216.568039	93.75	0.7756583999998838	2	0
308.4519645999999	0.7979063000002498	1	0	0	0	0	0	0
309.24987090000013	0.7978030000003855	2	49	5218.140182	100	0.7520066999995834	1	0
310.0476739000005	0.7984801	2	49	5218.858931	93.75	0.6729525999999169	1	0
310.84615399999984	0.7972896000001128	2	49	5219.578979	81.25	0.5945208000002822	1	0
311.64344359999996	0.7975752000002103	2	49	5220.350018	81.25	0.5682699999997567	1	0
312.44101880000017	0.7964273999996294	2	49	5221.224158	87.5	0.6448355000002266	1	0
313.2374461999998	0.7965008999999554	2	49	5222.138169	100	0.762419	1	0
314.03394709999975	0.7968289999998888	1	0	0	0	0	0	0
314.83077609999964	0.7975352000003113	2	49	5223.734128	100	0.7650479000003543	1	0
315.62831129999995	0.7973928999999771	2	49	5224.458189	93.75	0.6915735000002314	1	0
316.4257041999999	0.7968884000001708	2	49	5225.279404	93.75	0.715396	1	0
317.2225926000001	0.7980534999996962	1	0	0	0	0	0	0
318.0206460999998	0.7977258999999322	2	49	5226.898183	100	0.7392327000006844	1	0
318.8183719999997	0.7966788000003362	2	49	5227.733463	93.75	0.7767868999999337	2	0
319.61505080000006	0.7963026999996146	2	49	5228.512027	100	0.7586725000001024	1	0
320.4113534999997	0.7971085000008316	2	49	5229.16052	81.25	0.6108627000003253	1	0
321.2084620000005	0.7963874999995824	2	49	5230.10156	100	0.7547935999991751	1	0
322.0048495000001	0.7968566999998075	2	49	5230.887354	100	0.7442002999996475	1	0
322.8017061999999	0.7964637000004586	2	49	5231.757475	87.5	0.8174644000000626	2	0
323.59816990000036	0.7976878999998007	2	49	5232.451282	93.75	0.7148074999995515	1	0
324.39585780000016	0.7969829000003301	2	49	5233.191654	87.5	0.6574922999998307	1	0
325.1928407000005	0.7971819999993386	2	49	5234.26478	75	0.9336347999997088	2	0
325.9900226999998	0.7970814999998765	2	49	5234.888791	100	0.7604638000002524	1	0
326.7871041999997	0.7965117000003374	2	49	5235.739564	93.75	0.8141561000002184	2	0
327.58361590000004	0.7962496000000101	1	0	0	0	0	0	0
328.37986550000005	0.7967985000004774	2	49	5237.295609	93.75	0.7774394	2	0
329.1766640000005	0.7966514999998253	2	49	5238.118722	93.75	0.8037538999997196	2	0
329.97331550000035	0.7977200999994238	2	49	5238.803729	93.75	0.6921093000000837	1	0
330.7710355999998	0.7965535000003001	1	49	5239.846747	75	0.9374072000000524	2	0
331.5675891000001	0.7973057999997764	2	0	0	0	0	0	0
332.36489489999985	0.7963286000003791	2	49	5241.041776	75	0.5385765999999421	1	0
333.16122350000023	0.7971067999997103	1	49	5241.828754	75	0.5292258999998012	1	0
333.95833029999994	0.7964756000001216	2	49	5242.807877	93.75	0.7112421000001632	1	0
334.75480590000006	0.7960579999999027	2	49	5243.690839	93.75	0.7977288000001863	2	0
335.55086389999997	0.7978463999997985	2	49	5244.653027	75	0.9638586999999461	2	0
336.34871029999977	0.7967859999998836	2	49	5245.213707	100	0.7266927999999098	1	0
337.14549629999965	0.7983413000001747	2	49	5245.983969	93.75	0.7001684000006207	1	0
337.9438375999998	0.7982903000001897	2	49	5246.943056	87.5	0.8609147000006487	2	0
338.7421279	0.7962301999996271	2	49	5247.763953	81.25	0.883521	2	0
339.53835809999964	0.7963416000002326	2	49	5248.420979	100	0.7443172	1	0
340.3346996999999	0.7963605000004463	2	49	5249.285905	93.75	0.8129006999997728	2	0
341.1310602000003	0.7967989999997371	2	49	5250.44793	43.75	1.1785657999998875	2	0
341.92785920000006	0.7956157999997231	2	49	5251.027058	75	0.9608949000003122	2	0
342.7234749999998	0.7959648000005473	2	49	5251.770927	81.25	0.9091474000006201	2	0
343.5194398000003	0.7966393999995489	2	49	5252.568113	81.25	0.9103692999997293	2	0
344.3160791999999	0.7971461000006457	2	49	5253.33206	81.25	0.8776771000002555	2	0
345.1132253000005	0.7988662	2	49	5254.158184	81.25	0.9066549999997733	2	0
345.9120915000003	0.7961943000000247	2	49	5254.939339	81.25	0.8889435000000958	2	0
346.70828580000034	0.7971880999994028	2	49	5255.841725	68.75	0.9951348	2	0
347.50547389999974	0.7966886000003797	1	0	0	0	0	0	0
348.3021625000001	0.7966212999999698	2	49	5257.186249	100	0.7457825999999841	1	0
349.0987838000001	0.79714	2	49	5258.416219	43.75	1.1791308000001663	2	0
349.89592379999976	0.7958204000005935	2	49	5259.08563	62.5	1.0514022000006662	2	0
350.69174420000036	0.7967708999995011	2	49	5259.789446	75	0.9593977999993513	2	0
351.48851509999986	0.7975934000005509	2	49	5260.388049	100	0.7612298000003648	1	0
352.2861085000004	0.7967533999999432	2	49	5261.394249	68.75	0.9698358999994525	2	0
353.08286190000035	0.7964406999999483	2	49	5262.032283	93.75	0.8111172999997507	2	0
353.8793026000003	0.7971649999999499	2	49	5262.71641	93.75	0.6988032999997813	1	0
354.67646760000025	0.7966366999999082	2	49	5263.632614	93.75	0.8178425999994943	2	0
355.47310430000016	0.7972188000003371	2	49	5264.454706	87.5	0.8432972000000518	2	0
356.2703231000005	0.7969167999999627	2	49	5265.319712	81.25	0.9110843999997087	2	0
357.06723990000046	0.7969278000000486	2	49	5265.87858	93.75	0.6730356	1	0
357.8641677000005	0.7968726999997671	2	49	5266.610615	81.25	0.6081435999994937	1	0
358.6610404000003	0.7974459999995815	2	49	5267.471591	93.75	0.6722460000000865	1	0
359.45848639999986	0.7979364000002533	2	49	5268.289539	93.75	0.6927486000004137	1	0
360.2564228000001	0.7975374999996347	2	49	5269.190675	93.75	0.7959481999996569	2	0
361.05396029999974	0.7971503000007942	2	49	5270.049742	87.5	0.8574777000003451	2	0
361.85111060000054	0.7973003999995854	2	49	5270.809921	87.5	0.8205057999994096	2	0
362.6484110000001	0.7966150000002017	2	49	5271.676741	81.25	0.8900254000000132	2	0
363.4450260000003	0.7980562	2	49	5272.632768	62.5	1.0494380999998612	2	0
364.24308219999966	0.7964501000005839	2	49	5273.369703	68.75	0.9883169000004273	2	0
365.03953230000025	0.7963574999994307	2	49	5274.048865	81.25	0.8710286999994423	2	0
365.8358897999997	0.7973651000002064	1	49	5274.833028	87.5	0.8588337999999567	2	0
366.6332548999999	0.7975170999998227	2	49	5275.955687	43.75	1.1841282000004867	2	0
367.4307719999997	0.7966467	1	0	0	0	0	0	0
368.22741870000027	0.7975889999997889	2	49	5277.102761	100	0.7370380000002115	1	0
369.02500770000006	0.7966765999999552	2	49	5277.938928	93.75	0.7756159999998999	2	0
369.8216843	0.7969933000003948	2	49	5278.718157	100	0.7581688999998732	1	0
370.6186776000004	0.7965132999997877	2	49	5279.662371	81.25	0.9053887999998551	2	0
371.4151909000002	0.7979023999996571	2	49	5280.352958	93.75	0.7994631000001391	2	0
372.21309329999985	0.7967506000004505	1	0	0	0	0	0	0
373.0098439000003	0.7982265000000552	2	49	5281.911061	100	0.7629129999995712	1	0
373.80807040000036	0.7975449999994453	2	49	5282.761981	93.75	0.8156060999999681	2	0
374.6056153999998	0.7971748999998454	2	49	5283.535104	93.75	0.7911843000001682	2	0
375.40279029999965	0.7966408000002048	1	49	5284.271154	100	0.7300592000001416	1	0
376.19943109999986	0.7970572000003813	2	49	5285.352063	68.75	1.0143278000005012	2	0
376.99648830000024	0.7972738999997091	2	49	5286.165554	62.5	1.0307618999995611	2	0
377.79376219999995	0.7968797000003178	2	0	0	0	0	0	0
378.59064190000026	0.7979120999998486	2	49	5287.157156	62.5	0.42820990000018355	1	0
379.3885540000001	0.7969580999997561	2	49	5288.192173	87.5	0.6653145999998742	1	0
380.18551209999987	0.7968681000002107	2	49	5289.056248	100	0.7324318999999377	1	0
380.9823802000001	0.7976044999995793	2	49	5290.157229	62.5	1.0365443000000596	2	0
381.77998469999966	0.7972314000007827	2	49	5291.045257	50	1.1269686000005095	2	0
382.57721610000044	0.7964500999996744	2	0	0	0	0	0	0
383.3736662000001	0.7968137999996543	2	49	5292.145328	87.5	0.6333572000003187	1	0
384.17047999999977	0.7976708000005601	2	49	5292.944834	87.5	0.6360500999999203	1	0
384.96815080000033	0.7963153999999122	2	49	5293.679295	81.25	0.5728401999995185	1	0
385.76446620000024	0.7969427999996697	2	49	5294.601536	93.75	0.6987656000001152	1	0
386.5614089999999	0.7979573000002347	2	49	5295.525494	87.5	0.8257813000000169	2	0
387.35936630000015	0.7968597999997655	2	49	5296.201424	93.75	0.7037540000001172	1	0
388.1562260999999	0.7968074999998862	2	49	5297.083579	93.75	0.7890483000001041	2	0
388.9530335999998	0.7973572000000786	2	49	5298.111585	62.5	1.0202471000002333	2	0
389.7503907999999	0.7969278000000486	2	49	5298.754023	87.5	0.8653281000006245	2	0
390.5473185999999	0.7971014000004288	2	49	5299.641273	75	0.9556502000004912	2	0
391.34442000000035	0.7973911999997654	2	49	5300.345884	87.5	0.8631598000001759	2	0
392.1418112000001	0.7970624999998108	2	49	5301.14812	87.5	0.8680045999999493	2	0
392.93887369999993	0.7972547999997914	2	49	5301.883788	93.75	0.8066097000000809	2	0
393.7361284999997	0.7964576000003945	2	49	5302.93167	62.5	1.0572369000001345	2	0
394.5325861000001	0.7963724000001093	2	49	5303.435616	100	0.7647258999995756	1	0
395.3289585000002	0.7966518000002907	2	49	5304.175051	93.75	0.7077880999995614	1	0
396.1256103000005	0.7964898000000176	2	49	5304.896711	87.5	0.6327960999997231	1	0
396.92210010000053	0.7960536999999022	2	49	5305.655766	81.25	0.5953612999992401	1	0
397.71815380000044	0.7973014999997758	2	49	5306.601507	100	0.7450486999996428	1	0
398.5154553000002	0.7964089999995849	2	49	5307.334517	93.75	0.6807576999999583	1	0
399.3118642999998	0.7971158999998806	2	49	5308.24181	93.75	0.7916412000004129	2	0
400.1089801999997	0.7976309000005131	2	49	5308.972884	100	0.7255999	1	0
400.9066111000002	0.7968688999999358	2	49	5309.834022	93.75	0.7891063999995822	2	0
401.7034800000001	0.7962973	2	49	5310.637089	93.75	0.7953052000002572	2	0
402.49977730000046	0.7969077999996443	2	49	5311.584949	75	0.9468679999999949	2	0
403.2966851000001	0.7969212999996671	2	0	0	0	0	0	0
404.09360639999977	0.7967102000002342	2	49	5312.661045	62.5	0.4291348	1	0
404.8903166	0.7962496000000101	2	49	5313.690035	87.5	0.6614138000004459	1	0
405.6865662	0.7965852	2	49	5314.562035	100	0.7371644	1	0
406.48315139999977	0.7970765000000029	2	49	5315.322249	93.75	0.7007934000002933	1	0
407.2802278999998	0.7963620000000446	2	49	5316.287155	81.25	0.8686232000000018	2	0
408.0765898999998	0.7967373999999836	2	49	5317.062107	87.5	0.8472130999998626	2	0
408.8733272999998	0.7954315000006318	2	49	5317.912265	81.25	0.9006336000002193	2	0
409.66875880000043	0.7963079999999536	1	0	0	0	0	0	0
410.4650668000004	0.7970083999998678	2	49	5319.335265	100	0.7318943999998737	1	0
411.26207520000025	0.7971108	1	0	0	0	0	0	0
412.0591860000004	0.7958086	2	49	5320.847142	87.5	0.6496514000000388	1	0
412.8549946000003	0.7963404000001901	2	49	5321.599712	81.25	0.6064127999998163	1	0
413.6513350000005	0.7969924999997602	1	49	5322.326408	75	0.5367687999996633	1	0
414.44832750000023	0.7967295999997077	2	49	5323.354257	100	0.767625	1	0
415.24505709999994	0.7970245000005889	2	49	5324.078537	93.75	0.6951759000003221	1	0
416.04208160000053	0.7960869999997158	1	49	5324.85946	93.75	0.6790738999998212	1	0
416.83816860000024	0.7975409999999101	2	49	5325.623347	87.5	0.6468742999995811	1	0
417.63570960000015	0.7969044999999824	2	49	5326.32839	75	0.5543766999999207	1	0
418.43261410000014	0.7973329999995258	1	49	5327.263424	93.75	0.6925056	1	0
419.22994709999966	0.7974766000006639	2	49	5328.256026	81.25	0.8877748000004431	2	0
420.0274237000003	0.7976693000000523	2	49	5328.998615	87.5	0.8328873999998905	2	0
420.8250930000004	0.7968255999994653	1	49	5329.616814	87.5	0.6534163999995144	1	0
421.62191859999984	0.7975794000003589	2	49	5330.523711	100	0.7634877999998935	1	0
422.4194980000002	0.7976847999998427	2	0	0	0	0	0	0
423.21718280000005	0.7962217000003875	2	49	5331.914962	75	0.5594751999997243	1	0
424.01340450000043	0.7966243999999278	2	49	5332.688574	75	0.5368648999992729	1	0
424.81002890000036	0.7962354000001142	2	49	5333.678638	100	0.7303050999998959	1	0
425.6062643000005	0.7966047999998409	2	49	5334.447717	93.75	0.7031483999999182	1	0
426.4028691000003	0.7955616999997801	2	49	5335.547047	68.75	1.0058742000001075	2	0
427.1984308000001	0.7967574000003879	2	49	5336.341957	68.75	1.0052224999999453	2	0
427.9951882000005	0.7961277	2	49	5336.914698	93.75	0.7812052999997832	2	0
428.7913159	0.7961943000000247	2	49	5337.635226	93.75	0.7056057999998302	1	0
429.5875102	0.7958354000002146	2	49	5338.388841	87.5	0.6630271000003631	1	0
430.3833456000002	0.7962422000000515	2	49	5339.152737	87.5	0.6310871999994561	1	0
431.17958780000026	0.7977501999994274	2	49	5339.978663	87.5	0.6607708000001367	1	0
431.9773379999997	0.7959733000006963	2	49	5340.813875	93.75	0.6982325000008132	1	0
432.7733113000004	0.7972022999992987	2	49	5341.715275	93.75	0.8036592999997083	2	0
433.5705135999997	0.7971093000005567	2	49	5342.530141	87.5	0.8213232000007338	2	0
434.36762290000024	0.7981086999998297	2	49	5343.392981	81.25	0.8870537000002514	2	0
435.1657316000001	0.7969648999996934	2	49	5344.320161	68.75	1.0161250000001019	2	0
435.96269649999977	0.7962992000002487	2	49	5345.047087	75	0.9460865999999442	2	0
436.7589957	0.7967547999996896	2	49	5345.635153	100	0.7378534	1	0
437.5557504999997	0.7968353000005663	2	49	5346.391134	93.75	0.6970793000000413	1	0
438.35258580000027	0.7962970999997196	2	49	5347.298314	93.75	0.8074237999999241	2	0
439.1488829	0.7974186999999802	2	49	5348.093358	93.75	0.8061705000000075	2	0
439.94630159999997	0.7969401999998809	2	49	5348.908125	87.5	0.8235187999998743	2	0
440.74324179999985	0.7957937999999558	1	0	0	0	0	0	0
441.5390355999998	0.7967143000005308	2	49	5350.359182	93.75	0.6818419000001086	1	0
442.33574990000034	0.7965378999997483	2	49	5351.641375	43.75	1.1673206999994363	2	0
443.1322878000001	0.7961830000003829	2	49	5352.18047	81.25	0.9098780000003899	2	0
443.92847080000047	0.7962459999998828	2	49	5352.878126	93.75	0.8113505999999688	2	0
444.72471680000035	0.7979171999995742	2	49	5353.681545	93.75	0.8185237999996389	2	0
445.5226339999999	0.7970178000005035	2	49	5354.37223	93.75	0.7112917000004018	1	0
446.31965180000043	0.7971125999993092	2	49	5355.167528	93.75	0.7095716999992874	1	0
447.11676439999974	0.7967498000007254	2	49	5355.947294	93.75	0.6922256	1	0
447.91351420000046	0.7964271000000736	2	49	5356.77642	100	0.7246015000000625	1	0
448.70994130000054	0.7970477999997456	1	0	0	0	0	0	0
449.5069891000003	0.7967122000000018	2	49	5358.265433	87.5	0.6201396999995268	1	0
450.3037013000003	0.7967619999999442	2	49	5359.169461	100	0.7274557000000641	1	0
451.10046330000023	0.7965045000000828	2	49	5360.037485	93.75	0.7987175999996907	2	0
451.8969678000003	0.7968584000000192	2	49	5360.832575	93.75	0.7973032999998395	2	0
452.69382620000033	0.7966873999994277	2	49	5361.551568	100	0.7194380999999339	1	0
453.49051359999976	0.7965288000004875	2	49	5362.246698	87.5	0.6178798999999344	1	0
454.28704240000025	0.7973895999994056	1	49	5363.17269	100	0.7473431999997047	1	0
455.08443199999965	0.7965830000002825	2	49	5364.070779	87.5	0.8480425000007017	2	0
455.88101499999993	0.7961205999999947	2	49	5364.749742	100	0.7304229000001214	1	0
456.67713559999993	0.7968069	2	49	5365.524415	93.75	0.7089752000001681	1	0
457.4739424999998	0.7968785000002754	2	49	5366.524928	81.25	0.9126817000005758	2	0
458.27082100000007	0.7977571000001262	2	49	5367.273973	87.5	0.8648481000000174	2	0
459.0685781000002	0.7968548999997438	2	49	5368.054989	87.5	0.8481070999996518	2	0
459.86543299999994	0.7978792000003523	2	49	5368.884879	81.25	0.8811416999997164	2	0
460.6633122000003	0.7963903999998365	2	49	5369.624851	87.5	0.8232348000001366	2	0
461.4597026000001	0.7961180000002059	2	49	5370.408171	93.75	0.8101638999996794	2	0
462.25582060000033	0.7961859999995795	2	49	5371.216814	87.5	0.8226894999997967	2	0
463.0520065999999	0.7961830000003829	1	0	0	0	0	0	0
463.8481896000003	0.7967824999996083	2	49	5372.655857	93.75	0.6693636	1	0
464.6449720999999	0.7961251000006087	2	49	5373.373932	81.25	0.5906562000000122	1	0
465.4410972000005	0.7964273999996294	2	49	5374.091973	68.75	0.5125713999996151	1	0
466.23752460000014	0.7965888999997333	2	49	5374.960277	81.25	0.5844483999999284	1	0
467.0341134999999	0.7967288999998345	2	49	5375.894988	100	0.7225702000005185	1	0
467.8308423999997	0.7970230000000811	2	49	5376.714182	100	0.7450359000004028	1	0
468.6278653999998	0.7973009000006641	2	49	5377.592043	87.5	0.8258738000004087	2	0
469.42516630000046	0.7967906	2	49	5378.321505	100	0.7580340999993496	1	0
470.2219568999999	0.7967951000000539	2	49	5378.92222	75	0.5619587999999567	1	0
471.01875199999995	0.7959607000002507	2	49	5379.757221	81.25	0.6001645000005738	1	0
471.8147127000002	0.7963557000002766	2	49	5380.49513	75	0.5421133999998347	1	0
472.6110684000005	0.7960024999993038	2	49	5381.359006	81.25	0.6096337999997559	1	0
473.4070708999998	0.7963737000000037	2	49	5382.242484	93.75	0.6971085000004678	1	0
474.2034445999998	0.7952832999999373	2	49	5383.227262	81.25	0.8855137000000468	2	0
474.9987278999997	0.7968609	2	49	5383.90436	100	0.7673283000003721	1	0
475.7955887999997	0.7960476000007475	1	0	0	0	0	0	0
476.5916364000004	0.7955234000000928	2	49	5385.538543	93.75	0.8086020999999164	2	0
477.3871598000005	n/a	0	0	0	0	0	0	0