onset	duration	cue	constant1	timestamp	stimulus_coherence	response_time	response	constant2
20.51195592666045	0.8082081000320613	2	49	4067480.794	56.25	1.1007306999526918	2	0
21.32016402669251	0.8004614999517798	1	0	0	0	0	0	0
22.12062552664429	0.8016045	2	49	4067482.084	93.75	0.7819713000208139	2	0
22.92223003	0.7998896	2	49	4067482.887	93.75	0.7831421997398138	2	0
23.72211962658912	0.7997232000343502	2	49	4067483.698	93.75	0.7950528999790549	2	0
24.52184282662347	0.8000427	2	49	4067484.648	75	0.9444693000987172	2	0
25.32188552664593	0.7991372998803854	2	49	4067485.372	87.5	0.8689203998073936	2	0
26.121022826526314	0.8018240998499095	2	49	4067486.236	75	0.9336692998185754	2	0
26.922846926376224	0.7982927	2	49	4067487.096	68.75	0.9918482000939548	2	0
27.721139626577497	0.7964539001695812	2	49	4067487.786	81.25	0.8834389997646213	2	0
28.517593526747078	0.8009456996805966	2	49	4067488.565	87.5	0.8658883995376527	2	0
29.318539226427674	0.7990903002209961	2	49	4067489.376	81.25	0.8760850001126528	2	0
30.11762952664867	0.7978183999657631	2	49	4067490.103	93.75	0.8041288000531495	2	0
30.915447926614434	0.7996934996917844	2	49	4067490.898	93.75	0.8015033998526633	2	0
31.715141426306218	0.8031027000397444	1	0	0	0	0	0	0
32.51824412634596	0.7995734000578523	2	49	4067492.362	87.5	0.6626462	1	0
33.317817526403815	0.7992696999572217	2	49	4067493.355	87.5	0.8561491002328694	2	0
34.117087226361036	0.8004189003258944	2	49	4067494.14	87.5	0.8419568003155291	2	0
34.91750612668693	0.7995853000320494	2	49	4067494.953	87.5	0.8544507999904454	2	0
35.71709142671898	0.8018911997787654	2	49	4067495.843	75	0.9449443998746574	2	0
36.518982626497746	0.7994535998441279	2	49	4067496.627	75	0.9270506999455392	2	0
37.31843622634187	0.8007542002014816	2	49	4067497.416	81.25	0.9167588003911078	2	0
38.119190426543355	0.7999733001925051	2	49	4067498.213	81.25	0.9122779997996986	2	0
38.91916372673586	0.8011455996893346	2	49	4067499.136	62.5	1.0355566996149719	2	0
39.720309326425195	0.7997737000696361	2	49	4067499.893	68.75	0.9919227003119886	2	0
40.52008302649483	0.8017905000597239	2	49	4067500.606	81.25	0.9048712002113461	2	0
41.321873526554555	0.8003990999422967	2	49	4067501.359	87.5	0.8553841998800635	2	0
42.12227262649685	0.7997546000406146	2	49	4067502.154	87.5	0.8509654998779297	2	0
42.922027226537466	0.8003837000578642	2	49	4067503.086	68.75	0.9830357	2	0
43.72241092659533	0.8008941	2	49	4067503.892	68.75	0.9881389001384377	2	0
44.52330502634868	0.8002985999919474	2	49	4067504.552	87.5	0.8473430001176894	2	0
45.32360362634063	0.8007345	2	49	4067505.363	87.5	0.8582650003954768	2	0
46.12433812674135	0.8017352996394038	2	49	4067506.125	93.75	0.8195580998435616	2	0
46.92607342638075	0.8014699001796544	2	49	4067506.865	100	0.7572075999341905	1	0
47.72754332656041	0.8000072999857366	2	49	4067507.625	93.75	0.7158670998178422	1	0
48.527550626546144	0.7998571000061929	2	49	4067508.683	68.75	0.9737923997454345	2	0
49.32740772655234	0.8025778997689486	1	0	0	0	0	0	0
50.129985626321286	0.7997248000465333	2	49	4067509.93	81.25	0.6183388000354171	1	0
50.92971042636782	0.8003422003239393	2	49	4067510.833	100	0.7217049999162555	1	0
51.73005262669176	0.8020295999012887	2	49	4067511.79	81.25	0.8784079998731613	2	0
52.53208222659305	0.8025074996985495	2	49	4067512.565	87.5	0.8518221997655928	2	0
53.33458973	0.8009465001523495	2	49	4067513.353	87.5	0.8368447003886104	2	0
54.135536226443946	0.8011103002354503	2	49	4067514.173	87.5	0.8559793001040816	2	0
54.93664653	0.8007875997573137	2	49	4067515.164	62.5	1.0458252998068929	2	0
55.73743412643671	0.7989525999873877	1	0	0	0	0	0	0
56.53638673	0.7991074998863041	2	49	4067516.35	87.5	0.6320881000719965	1	0
57.33549423	0.8008692003786564	2	49	4067517.234	93.75	0.7169131003320217	1	0
58.13636342668906	0.8012470998801291	2	49	4067518.21	81.25	0.8927961997687817	2	0
58.93761052656919	0.8023823997937143	2	49	4067519.1	68.75	0.9809842999093235	2	0
59.73999293	0.7995897000655532	2	49	4067519.897	68.75	0.9756325003691018	2	0
60.539582626428455	0.8004359998740256	2	49	4067520.604	81.25	0.8835768001154065	2	0
61.34001862630248	0.7997739003039896	2	49	4067521.384	87.5	0.8622533003799617	2	0
62.13979252660647	0.8001486998982728	2	49	4067522.31	68.75	0.9892330998554826	2	0
62.93994122650474	0.7999685001559556	2	49	4067523.193	56.25	1.0719055999070406	2	0
63.73990973	0.8001007996499538	2	49	4067523.834	81.25	0.9127849000506103	2	0
64.54001052631065	0.8029696000739932	2	49	4067524.62	81.25	0.8987349001690745	2	0
65.34298012638465	0.8000302002765238	2	49	4067525.25	100	0.7257073000073433	1	0
66.14301032666117	0.8018777999095619	2	49	4067526.057	100	0.7328029000200331	1	0
66.94488812657073	0.8015632000751793	2	49	4067527.029	81.25	0.9030869998969138	2	0
67.74645132664591	0.8004769999533892	1	49	4067527.742	93.75	0.8146885000169277	2	0
68.54692833	0.8007354000583291	2	49	4067528.593	87.5	0.8650568998418748	2	0
69.34766372665763	0.8012104998342693	2	49	4067529.266	100	0.7372773997485638	1	0
70.14887423	0.8015057998709381	1	0	0	0	0	0	0
70.95038002636284	0.7996827000752091	2	49	4067530.737	81.25	0.6057702000252903	1	0
71.75006272643805	0.8028008001856506	2	49	4067531.663	100	0.7319277999922633	1	0
72.55286353	0.8012906997464597	2	49	4067532.521	93.75	0.7870403998531401	2	0
73.35415422637016	0.8016405003145337	2	49	4067533.372	87.5	0.8369569000788033	2	0
74.15579472668469	0.7987289996817708	2	49	4067534.299	75	0.9616769999265671	2	0
74.95452372636646	0.7993344003334641	2	49	4067535.099	75	0.9627759	2	0
75.75385812669992	0.8003763998858631	2	49	4067535.835	81.25	0.9003511997871101	2	0
76.55423452658579	0.7985128001309931	2	49	4067536.581	87.5	0.8455638997256756	2	0
77.35274732671678	0.7984222997911274	2	49	4067537.378	87.5	0.8443110999651253	2	0
78.15116962650791	0.7998067000880837	2	49	4067538.237	81.25	0.9050675998441875	2	0
78.95097632659599	0.8021069997921586	2	49	4067539.014	81.25	0.8813494998030365	2	0
79.75308332638815	0.7976143001578748	2	49	4067539.736	93.75	0.8011854002252221	2	0
80.55069762654603	0.8000241997651756	2	49	4067540.497	100	0.7653855001553893	1	0
81.35072183	0.7993633	2	49	4067541.331	93.75	0.7994884001091123	2	0
82.15008512651548	0.8011233	2	49	4067542.117	93.75	0.7861545998603106	2	0
82.95120842661709	0.8004406997933984	2	49	4067542.951	93.75	0.8183780997060239	2	0
83.75164912641048	0.8010840001516044	2	49	4067543.906	68.75	0.9728939002379775	2	0
84.55273312656209	0.7991170999594033	2	49	4067544.671	75	0.9371067997999489	2	0
85.35185022652149	0.8035066998563707	2	49	4067545.526	68.75	0.9927114997990429	2	0
86.15535692637786	0.8000775999389589	2	49	4067546.271	75	0.9339576000347733	2	0
86.95543452631682	0.7990709003061056	2	49	4067547.244	56.25	1.1072654002346098	2	0
87.75450542662293	0.7999426000751555	2	49	4067547.902	75	0.9661514000035822	2	0
88.55444802669808	0.8006915999576449	2	49	4067548.694	75	0.9580163997597992	2	0
89.35513962665573	0.8001154996454716	2	49	4067549.439	81.25	0.9024036000482738	2	0
90.15525513	0.8011489002965391	2	49	4067550.108	100	0.7713779001496732	1	0
90.95640402659774	0.7993204998783767	2	49	4067550.905	100	0.7675477000884712	1	0
91.75572452647611	0.8002281999215484	2	49	4067551.628	93.75	0.6914599998854101	1	0
92.55595272639766	0.7986473999917507	2	49	4067552.594	87.5	0.8568522003479302	2	0
93.35460012638941	0.7999796001240611	2	49	4067553.311	93.75	0.7750195	2	0
94.15457972651348	0.8004858000203967	2	49	4067554.253	81.25	0.9170221001841128	2	0
94.95506552653387	0.7992825000546873	2	49	4067555.025	81.25	0.8888538000173867	2	0
95.75434802658856	0.8009224999696016	2	49	4067555.887	75	0.9514843998476863	2	0
96.55527052655816	0.8009510999545455	2	49	4067556.509	93.75	0.7725084000267088	2	0
97.35622163	0.7996860998682678	2	49	4067557.313	93.75	0.7755231000483036	2	0
98.15590772638097	0.8007610999047756	1	0	0	0	0	0	0
98.95666882628575	0.8016822002828121	2	49	4067558.782	87.5	0.6439303001388907	1	0
99.75835102656856	0.8021754999645054	2	49	4067559.663	100	0.7237122999504209	1	0
100.56052652653307	0.7999132	2	49	4067560.435	93.75	0.6932842000387609	1	0
101.36043972661719	0.8005154998973012	2	49	4067561.27	100	0.7283391	1	0
102.16095522651449	0.8007379998452961	2	49	4067562.091	100	0.7492615999653935	1	0
102.96169322635978	0.8007388999685645	2	49	4067563.024	81.25	0.8815383999608457	2	0
103.76243212632835	0.8001437000930309	2	49	4067563.684	100	0.7405163999646902	1	0
104.56257582642138	0.8036785000003874	2	49	4067564.445	93.75	0.7009438001550734	1	0
105.36625432642177	0.7995437001809478	2	49	4067565.373	87.5	0.8256129999645054	2	0
106.16579802660272	0.7989993998780847	2	49	4067566.153	93.75	0.8055167999118567	2	0
106.9647974264808	0.8007096000947058	2	49	4067566.801	87.5	0.6548441001214087	1	0
107.7655070265755	0.8002280998043716	2	49	4067567.612	87.5	0.6655453001148999	1	0
108.56573512637988	0.7998168002814054	1	0	0	0	0	0	0
109.36555192666128	0.8023872999474406	2	49	4067569.211	87.5	0.6638624998740852	1	0
110.16793922660872	0.8010002998635173	2	49	4067570.086	100	0.7368926997296512	1	0
110.96893952647224	0.8009418002329767	2	49	4067571.189	62.5	1.0391934998333454	2	0
111.76988132670522	0.8011641995981336	2	49	4067571.781	87.5	0.8302716999314725	2	0
112.57104552630335	0.8009607000276446	2	49	4067572.604	87.5	0.8513557002879679	2	0
113.3720062	0.8016134002245963	2	49	4067573.359	93.75	0.8061995003372431	2	0
114.17361962655559	0.8027828000485897	2	49	4067574.428	62.5	1.072766600176692	2	0
114.97640242660418	0.8008381999097764	1	0	0	0	0	0	0
115.77724062651396	0.8002428999170661	2	49	4067575.642	93.75	0.6830490999855101	1	0
116.57748352643102	0.8010006002150476	2	49	4067576.515	100	0.7560425000265241	1	0
117.37848412664607	0.7999352999031544	1	0	0	0	0	0	0
118.17841942654923	0.8040359001606703	1	0	0	0	0	0	0
118.9824553267099	0.8015150995925069	2	49	4067578.915	100	0.7513944	1	0
119.7839704263024	0.8023649002425373	2	49	4067579.725	100	0.7595012001693249	1	0
120.58633532654494	0.8004775000736117	2	49	4067580.656	81.25	0.8880917998030782	2	0
121.38681282661855	0.7993677998892963	2	49	4067581.501	75	0.9325222000479698	2	0
122.18618062650785	0.8000559001229703	1	0	0	0	0	0	0
122.98623652663082	0.7987766000442207	1	49	4067582.798	87.5	0.6302499999292195	1	0
123.78501312667504	0.7986945998854935	2	49	4067583.807	87.5	0.8408373999409378	2	0
124.58370772656053	0.8012442998588085	2	49	4067584.549	93.75	0.7841238998807967	2	0
125.38495202641934	0.8014136999845505	2	49	4067585.383	93.75	0.8163120001554489	2	0
126.18636572640389	0.8022489002905786	2	49	4067586.21	87.5	0.8425030000507832	2	0
126.98861462669447	0.7998416000045836	2	49	4067587.168	68.75	0.9982706997543573	2	0
127.78845622669905	0.8015993000008166	1	0	0	0	0	0	0
128.59005552669987	0.8024373	1	0	0	0	0	0	0
129.39249282656237	0.8000499997287989	2	49	4067589.274	93.75	0.7001706999726593	1	0
130.19254282629117	0.8016917002387345	2	49	4067590.374	68.75	1.0001368001103401	2	0
130.9942345265299	0.8003195999190211	2	49	4067591.123	75	0.9479240998625755	2	0
131.79455412644893	0.8003751002252102	2	49	4067591.956	68.75	0.9803031999617815	2	0
132.59492922667414	0.7991279000416398	2	49	4067592.845	62.5	1.0684485998935997	2	0
133.39405712671578	0.8016892997547984	2	49	4067593.544	75	0.9689632998779416	2	0
134.19574642647058	0.8020266001112759	2	49	4067594.243	87.5	0.8663901002146304	2	0
134.99777302658185	0.8015087000094354	2	49	4067595.058	81.25	0.878978	2	0
135.7992817265913	0.8026171997189522	1	49	4067595.807	87.5	0.8266890998929739	2	0
136.60189892631024	0.7999651003628969	2	49	4067596.671	81.25	0.8878828003071249	2	0
137.40186402667314	0.8008667998947203	2	49	4067597.483	81.25	0.8995199999772012	2	0
138.20273082656786	0.8008230999112129	2	49	4067598.281	81.25	0.8971766	2	0
139.00355392647907	0.800047	2	49	4067599.327	50	1.1424267999827862	2	0
139.80360092641786	0.8011970999650657	2	49	4067599.819	87.5	0.8345645000226796	2	0
140.60479802638292	0.7996972999535501	2	49	4067600.599	93.75	0.8131599999032915	2	0
141.40449532633647	0.7999528	2	49	4067601.539	75	0.9527804	2	0
142.20444812672213	0.8011152995750308	2	49	4067602.311	75	0.9248162996955216	2	0
143.00556342629716	0.8018614002503455	2	49	4067603.113	75	0.9257978000678122	2	0
143.8074248265475	0.8016662001609802	2	49	4067604.039	62.5	1.050745700020343	2	0
144.60909102670848	0.8001230997033417	2	49	4067604.811	68.75	1.0204751999117434	2	0
145.40921412641183	0.8016462000086904	2	49	4067605.584	68.75	0.9939333000220358	2	0
146.21086032642052	0.8035957	2	49	4067606.251	87.5	0.8593063000589609	2	0
147.01445602672175	0.8004803	2	49	4067607.079	81.25	0.8837540997192264	2	0
147.81493632635102	0.8014271999709308	1	49	4067607.778	93.75	0.7822861	2	0
148.61636352632195	0.8014376000501215	2	49	4067608.563	100	0.7653349000029266	1	0
149.41780112637207	0.8005136	2	49	4067609.422	87.5	0.8224524003453553	2	0
150.21831472637132	0.8019676003605127	1	0	0	0	0	0	0
151.02028232673183	0.7995825000107288	2	49	4067610.888	93.75	0.6860074996948242	1	0
151.81986482674256	0.8009835998527706	2	49	4067611.832	87.5	0.8305067997425795	2	0
152.62084842659533	0.8027212996967137	2	49	4067612.675	87.5	0.8725748998112977	2	0
153.42356972629204	0.8017223002389073	2	49	4067613.372	100	0.7673782003112137	1	0
154.22529202653095	0.7995502	2	49	4067614.247	87.5	0.8401743001304567	2	0
155.02484222641215	0.8010726002976298	2	49	4067615.191	68.75	0.9847125001251698	2	0
155.82591482670978	0.8016522997058928	2	49	4067615.932	75	0.9244786999188364	2	0
156.62756712641567	0.8004549001343548	2	49	4067616.761	75	0.9516950002871454	2	0
157.42802202655002	0.8015278000384569	1	0	0	0	0	0	0
158.22954982658848	0.8010267997160554	2	49	4067618.319	81.25	0.9084314997307956	2	0
159.03057662630454	0.7999055003747344	2	49	4067619.214	68.75	1.0022717001847923	2	0
159.83048212667927	0.8016154998913407	1	0	0	0	0	0	0
160.6320976265706	0.7994250999763608	2	49	4067620.564	100	0.7507146997377276	1	0
161.43152272654697	0.8019392001442611	2	49	4067621.291	93.75	0.6781076998449862	1	0
162.23346192669123	0.8014658996835351	2	49	4067622.342	75	0.9271513000130653	2	0
163.03492782637477	0.8016031999140978	1	0	0	0	0	0	0
163.83653102628887	0.8011306002736092	2	49	4067623.627	81.25	0.6094867000356317	1	0
164.63766162656248	0.7995831998996437	2	49	4067624.744	75	0.9251156998798251	2	0
165.43724482646212	0.8007228998467326	2	49	4067625.32	93.75	0.7016801000572741	1	0
166.23796772630885	0.7998107001185417	1	0	0	0	0	0	0
167.0377784264274	0.8001061999239028	2	49	4067626.934	93.75	0.7149244002066553	1	0
167.8378846263513	0.8000340000726283	2	49	4067627.871	87.5	0.8522475999779999	2	0
168.63791862642393	0.8022779002785683	2	49	4067628.691	87.5	0.8720773002132773	2	0
169.4401965267025	0.8005524	2	49	4067629.504	81.25	0.8827102999202907	2	0
170.24074892653152	0.8004052001051605	2	49	4067630.33	81.25	0.9082086998969316	2	0
171.04115412663668	0.8015009998343885	2	49	4067631.126	81.25	0.903851	2	0
171.84265512647107	0.7998350001871586	1	49	4067631.797	93.75	0.7734894999302924	2	0
172.64249012665823	0.8014376000501215	2	49	4067632.637	93.75	0.8135082996450365	2	0
173.44392772670835	0.7997030997648835	2	49	4067633.761	50	1.1361390999518335	2	0
174.24363082647324	0.8012347002513707	2	49	4067634.224	93.75	0.7991106	2	0
175.0448655267246	0.8005962995812297	2	49	4067635.111	81.25	0.8852271996438503	2	0
175.84546182630584	0.7998701	1	0	0	0	0	0	0
176.64533192664385	0.8007421996444464	2	49	4067636.454	87.5	0.6279166000895202	1	0
177.4460741262883	0.7997394003905356	1	0	0	0	0	0	0
178.24581352667883	0.7992054000496864	2	49	4067637.99	75	0.5628899000585079	1	0
179.04501892672852	0.8018789999186993	2	49	4067638.829	81.25	0.6023332	1	0
179.84689792664722	0.7991295	2	49	4067639.7	93.75	0.6722777998074889	1	0
180.64602742670104	0.8023341996595263	2	49	4067640.781	75	0.9532921998761594	2	0
181.44836162636057	0.8010869002901018	2	49	4067641.624	68.75	0.9948849999345839	2	0
182.24944852665067	0.8047110997140408	2	49	4067642.475	62.5	1.0439265999011695	2	0
183.0541596263647	0.7995625999756157	1	0	0	0	0	0	0
183.85372222634032	0.7992409002035856	2	49	4067643.608	81.25	0.5730391000397503	1	0
184.6529631265439	0.8018102999776602	2	49	4067644.6	100	0.7653729999437928	1	0
185.45477342652157	0.8010276001878083	2	49	4067645.425	93.75	0.7887304001487792	2	0
186.25580102670938	0.8007988999597728	2	49	4067646.345	81.25	0.9078689999878407	2	0
187.05659992666915	0.8018678999505937	2	49	4067647.074	87.5	0.8365007997490466	2	0
187.85846782661974	0.8012300999835134	2	49	4067647.819	93.75	0.7789251	2	0
188.65969792660326	0.8018110999837518	1	0	0	0	0	0	0
189.461509	0.8014171998947859	2	49	4067649.392	100	0.7494684997946024	1	0
190.2629262264818	0.7995668002404273	2	49	4067650.329	81.25	0.8848365000449121	2	0
191.06249302672222	0.7993687000125647	1	0	0	0	0	0	0
191.8618617267348	0.8016819995827973	2	49	4067651.482	62.5	0.4391448996029794	1	0
192.66354372631758	0.8020777003839612	2	49	4067652.644	93.75	0.7989312000572681	2	0
193.46562142670155	0.8007641998119652	2	49	4067653.336	93.75	0.6892561996355653	1	0
194.2663856265135	0.7991813002154231	2	49	4067654.482	62.5	1.0345302000641823	2	0
195.06556692672893	0.802066	2	49	4067655.111	87.5	0.8641077997162938	2	0
195.86763292644173	0.8009856999851763	2	49	4067655.892	87.5	0.8433081000111997	2	0
196.6686186264269	0.8007466001436114	2	0	0	0	0	0	0
197.46936522657052	0.8004211001098156	2	49	4067657.234	81.25	0.5833760001696646	1	0
198.26978632668033	0.7999565997160971	2	49	4067658.226	93.75	0.7748282998800278	2	0
199.06974292639643	0.8002955000847578	2	49	4067658.949	93.75	0.6981294001452625	1	0
199.8700384264812	0.8021844001486897	2	49	4067659.856	93.75	0.8046792	2	0
200.67222282662988	0.8025003997609019	2	49	4067660.654	93.75	0.8009593999013305	2	0
201.47472322639078	0.8013287000358105	1	0	0	0	0	0	0
202.2760519264266	0.8009231998585165	2	49	4067662.224	100	0.7668872000649571	1	0
203.0769751262851	0.8006813004612923	2	49	4067662.896	87.5	0.638171	1	0
203.8776564267464	0.8013533996418118	2	49	4067663.858	93.75	0.7994213998317719	2	0
204.6790098263882	0.8009427	2	49	4067664.783	75	0.9227411	2	0
205.47995252674446	0.7996098999865353	2	49	4067665.591	75	0.9299500999040902	2	0
206.2795624	0.8039253000169992	2	49	4067666.342	81.25	0.8814638997428119	2	0
207.0834877	0.8013616995885968	2	49	4067667.04	93.75	0.7748932996764779	2	0
207.8848494263366	0.7997146002016962	2	49	4067667.806	100	0.7402250999584794	1	0
208.68456402653828	0.8005638998001814	2	49	4067668.601	100	0.7347705997526646	1	0
209.48512792633846	0.8002496999688447	2	49	4067669.271	81.25	0.6050149002112448	1	0
210.2853776263073	0.7996437000110745	2	49	4067670.039	81.25	0.5728330002166331	1	0
211.08502132631838	0.8011663001962006	1	49	4067670.978	93.75	0.7112479000352323	1	0
211.88618762651458	0.8006811002269387	2	49	4067672.032	75	0.9642376000992954	2	0
212.68686872674152	0.8011385998688638	2	49	4067672.794	75	0.9256829996593297	2	0
213.4880073266104	0.8005002001300454	2	49	4067673.662	68.75	0.9922831999137998	2	0
214.28850752674043	0.8004128998145461	2	49	4067674.332	87.5	0.8621817	2	0
215.08892042655498	0.8039716999046504	2	49	4067675.152	81.25	0.8823043997399509	2	0
215.89289212645963	0.7990661999210715	2	49	4067675.926	87.5	0.8514517000876367	2	0
216.6919583263807	0.8004176001995802	2	49	4067676.864	68.75	0.9904594	2	0
217.49237592658028	0.8014559000730515	2	49	4067677.443	100	0.7691110000014305	1	0
218.29383182665333	0.8020393997430801	2	49	4067678.379	81.25	0.9036971000023186	2	0
219.0958712263964	0.8010001	2	49	4067679.104	87.5	0.8264699000865221	2	0
219.89687132649124	0.8028796999715269	2	49	4067679.866	93.75	0.7878499999642372	2	0
220.69975102646276	0.8015813999809325	2	49	4067680.605	100	0.7237129001878202	1	0
221.5013324264437	0.8016817001625896	2	49	4067681.497	93.75	0.8143163002096117	2	0
222.30301412660629	0.8018935997970402	2	49	4067682.433	75	0.9482674999162555	2	0
223.10490772640333	0.7990627000108361	2	49	4067683.234	75	0.9476139000616968	2	0
223.90397042641416	0.8015454	2	49	4067683.856	100	0.7706691999919713	1	0
224.70551582658663	0.8018122999928892	2	49	4067684.605	93.75	0.7185406000353396	1	0
225.50732812657952	0.8040704000741243	2	49	4067685.657	75	0.9683639998547733	2	0
226.31139852665365	0.8006850997917354	1	0	0	0	0	0	0
227.11208362644538	0.8005766998976469	2	49	4067687.128	87.5	0.8345451	2	0
227.91266032634303	0.7999033001251519	1	0	0	0	0	0	0
228.71256362646818	0.8017808999866247	2	49	4067688.585	93.75	0.6914735999889672	1	0
229.5143445264548	0.8015795000828803	2	49	4067689.446	100	0.7501888000406325	1	0
230.3159240265377	0.8003949001431465	2	49	4067690.101	81.25	0.6036852998659015	1	0
231.11631892668083	0.8005817998200655	2	49	4067691.048	100	0.7508535999804735	1	0
231.9169007265009	0.8012526999227703	2	49	4067691.906	93.75	0.8079098998568952	2	0
232.71815342642367	0.7991980998776853	2	49	4067692.704	93.75	0.8047897000797093	2	0
233.51735152630135	0.7999047003686428	2	49	4067693.467	100	0.7685553003102541	1	0
234.3172562	0.8002586998045444	2	49	4067694.275	93.75	0.7764542996883392	2	0
235.11751492647454	0.8016154998913407	2	49	4067695.106	93.75	0.8073604	2	0
235.91913042636588	0.8015992003493011	2	49	4067695.744	87.5	0.6439185002818704	1	0
236.72072962671518	0.7999656996689737	2	49	4067696.943	62.5	1.0413728998973966	2	0
237.52069532638416	0.8010574001818895	2	49	4067697.775	56.25	1.0732141002081335	2	0
238.32175272656605	0.8022202998399734	2	0	0	0	0	0	0
239.12397302640602	0.8016945999115705	2	49	4067699.052	100	0.7469649002887309	1	0
239.9256676263176	0.8024653000757098	2	49	4067699.848	100	0.7405998003669083	1	0
240.7281329263933	0.7997226002626121	2	49	4067700.643	100	0.7334447000175714	1	0
241.5278555266559	0.8013122	2	49	4067701.379	87.5	0.6702048997394741	1	0
242.32916772644967	0.8009788999333978	2	49	4067702.235	100	0.7243203	1	0
243.13014662638307	0.8001851001754403	2	49	4067702.915	81.25	0.6040213000960648	1	0
243.9303317265585	0.8014340000227094	1	0	0	0	0	0	0
244.73176572658122	0.8024041000753641	2	49	4067704.863	75	0.9498812	2	0
245.53416982665658	0.7999648000113666	2	49	4067705.772	62.5	1.056319700088352	2	0
246.33413462666795	0.8019371996633708	2	49	4067706.307	93.75	0.7915313998237252	2	0
247.13607182633132	0.8019069000147283	2	49	4067707.049	100	0.7320807003416121	1	0
247.93797872634605	0.7991038002073765	2	49	4067708.004	81.25	0.8849981003440917	2	0
248.73708252655342	0.8012438998557627	2	49	4067708.824	81.25	0.9053120999597013	2	0
249.53832642640918	0.8000889	2	49	4067709.625	81.25	0.9050206001847982	2	0
250.3384153265506	0.8010968999005854	2	49	4067710.271	100	0.7513172999024391	1	0
251.1395122264512	0.8005649000406265	2	49	4067711.09	100	0.7691232999786735	1	0
251.94007712649181	0.8018891	2	49	4067711.981	87.5	0.8592876000329852	2	0
252.74196622660384	0.8022664999589324	2	49	4067712.658	100	0.7350511001423001	1	0
253.54423272656277	0.7996848998591304	2	49	4067713.423	93.75	0.6971368999220431	1	0
254.3439176264219	0.7996621001511812	1	49	4067714.189	87.5	0.6637792000547051	1	0
255.14357972657308	0.7996955998241901	2	49	4067715.054	100	0.7288414998911321	1	0
255.94327532639727	0.7975057000294328	2	49	4067715.89	100	0.7651972002349794	1	0
256.7407810264267	0.8012166	2	49	4067716.781	87.5	0.8588101002387702	2	0
257.54199762642384	0.8021197002381086	2	49	4067717.804	56.25	1.0805357000790536	2	0
258.34411732666194	0.8014473998919129	2	49	4067718.59	62.5	1.0643076999112964	2	0
259.14556472655386	0.8009056998416781	2	49	4067719.169	87.5	0.8421328999102116	2	0
259.94647042639554	0.8017132002860308	2	49	4067720.094	75	0.9666617000475526	2	0
260.74818362668157	0.8021079	2	49	4067720.733	93.75	0.8036113996058702	2	0
261.5502915	0.7986507001332939	2	49	4067721.514	93.75	0.7822984997183084	2	0
262.3489422267303	0.7999991998076439	2	49	4067722.254	100	0.7238440997898579	1	0
263.14894142653793	0.8018114999867976	1	49	4067723.077	100	0.7470140000805259	1	0
263.95075292652473	0.8009442999027669	2	49	4067724.237	56.25	1.1051600999198854	2	0
264.7516972264275	0.8005611998960376	2	49	4067724.767	87.5	0.8341288003139198	2	0
265.55225842632353	0.8023567004129291	1	49	4067725.689	75	0.9559830999933183	2	0
266.35461512673646	0.8007307997904718	2	49	4067726.508	75	0.9722634996287525	2	0
267.15534592652693	0.8023446002043784	2	49	4067727.39	62.5	1.0531243002042174	2	0
267.9576905267313	0.8019750998355448	2	49	4067728.139	68.75	0.9995760996825993	2	0
268.75966562656686	0.8028574	2	49	4067728.819	81.25	0.8780692000873387	2	0
269.562523	0.8008830002509058	2	49	4067729.62	81.25	0.8763736998662353	2	0
270.3634060267359	0.8008002997376025	2	49	4067730.357	93.75	0.8120171995833516	2	0
271.1642063264735	0.8006990002468228	2	49	4067731.159	93.75	0.8131011999212205	2	0
271.9649053267203	0.8010608996264637	2	49	4067731.938	93.75	0.7921288996003568	2	0
272.7659662263468	0.8008548002690077	2	49	4067732.916	75	0.9688758002594113	2	0
273.5668210266158	0.8007213999517262	2	49	4067733.621	81.25	0.8732606000266969	2	0
274.3675424265675	0.8001969000324607	2	49	4067734.391	87.5	0.8425090000964701	2	0
275.1677393	0.7993149999529123	2	49	4067735.211	87.5	0.8619121	2	0
275.9670543265529	0.8015414997935295	2	49	4067735.978	87.5	0.8299958999268711	2	0
276.7685958263464	0.8004753002896905	2	49	4067736.706	100	0.7566421004012227	1	0
277.5690711266361	0.8011058997362852	2	49	4067737.897	50	1.1466218000277877	2	0
278.3701770263724	0.7999072000384331	2	49	4067738.404	87.5	0.8530069999396801	2	0
279.17008422641084	0.8024299000389874	2	49	4067739.152	93.75	0.8006219998933375	2	0
279.9725141264498	0.8052635998465121	2	49	4067739.978	93.75	0.8237645998597145	2	0
280.77777772629634	0.8012470002286136	2	49	4067740.995	62.5	1.035956300329417	2	0
281.57902472652495	0.8007384999655187	2	49	4067741.602	87.5	0.8412913	2	0
282.37976322649047	0.8029251000843942	2	49	4067742.406	87.5	0.8445946001447737	2	0
283.18268832657486	0.8021319000981748	2	49	4067743.353	68.75	0.9895059000700712	2	0
283.98482022667304	0.7952003	2	49	4067743.988	87.5	0.8214414999820292	2	0
284.7800205266103	0.7948157000355422	2	49	4067744.872	81.25	0.9103075000457466	2	0
285.57483622664586	0.7943921997211874	1	0	0	0	0	0	0
286.36922842636704	0.8010615003295243	2	49	4067746.548	68.75	0.9971432001329958	2	0
287.17028992669657	0.7999370996840298	2	49	4067747.217	87.5	0.8653390998952091	2	0
287.9702270263806	0.8003170001320541	2	49	4067748.12	75	0.9682328999042511	2	0
288.77054402651265	0.7995277000591159	2	49	4067748.994	62.5	1.041822399944067	2	0
289.57007172657177	0.7970246998593211	2	49	4067749.522	93.75	0.7704616999253631	2	0
290.3670964264311	0.7962406002916396	2	49	4067750.395	87.5	0.8464051000773907	2	0
291.16333702672273	0.7978195999749005	2	49	4067751.214	81.25	0.8694190997630358	2	0
291.96115662669763	0.7999410997144878	2	49	4067751.989	87.5	0.8469080999493599	2	0
292.7610977264121	0.8025217	2	49	4067752.748	93.75	0.8055807999335229	2	0
293.5636194264516	0.8007109	2	49	4067753.494	100	0.7486345	1	0
294.36433032667264	0.8000730997882783	2	49	4067754.424	81.25	0.8783088997006416	2	0
295.1644034264609	0.8007175	2	49	4067755.514	50	1.1682215998880565	2	0
295.96512092649937	0.7991112000308931	2	0	0	0	0	0	0
296.76423212653026	0.8011047001928091	2	49	4067756.797	87.5	0.8510886998847127	2	0
297.56533682672307	0.8017119998112321	2	49	4067757.597	87.5	0.8504394995979965	2	0
298.3670488265343	0.8012459999881685	2	49	4067758.351	93.75	0.8027162998914719	2	0
299.16829482652247	0.802603	2	49	4067759.107	100	0.7576232	1	0
299.9708978263661	0.8018094999715686	2	49	4067760.286	50	1.1340207001194358	2	0
300.7727073263377	0.8004713002592325	2	49	4067760.843	81.25	0.8886609002947807	2	0
301.5731786265969	0.8038272000849247	2	49	4067761.575	93.75	0.8205658998340368	2	0
302.37700582668185	0.8015773999504745	2	49	4067762.41	87.5	0.8514430997893214	2	0
303.1785832266323	0.7999900998547673	2	49	4067763.234	81.25	0.8744703000411391	2	0
303.9785733264871	0.8007658999413252	2	49	4067764	87.5	0.8403513999655843	2	0
304.7793392264284	0.8019522000104189	2	49	4067764.781	93.75	0.8207944	2	0
305.58129142643884	0.8015637998469174	2	49	4067765.762	68.75	0.9993013	2	0
306.38285522628576	0.8006652002222836	2	49	4067766.453	81.25	0.8890648004598916	2	0
307.18352042650804	0.8015399998985231	2	49	4067767.131	100	0.7663699	1	0
307.98506042640656	0.8006323003210127	2	49	4067767.81	87.5	0.6439565001055598	1	0
308.7856927267276	0.7976497998461127	2	49	4067768.999	62.5	1.0319925	2	0
309.5833425265737	0.8014420997351408	2	49	4067769.568	93.75	0.8030372997745872	2	0
310.38478462630883	0.8043401003815234	2	49	4067770.418	87.5	0.8516729003749788	2	0
311.18912472669035	0.8005555998533964	2	49	4067771.145	93.75	0.7741385996341705	2	0
311.98968032654375	0.8023028001189232	2	49	4067771.921	100	0.7501083998940885	1	0
312.79198312666267	0.8021820997819304	2	49	4067772.709	100	0.7355561996810138	1	0
313.5941652264446	0.8006919	2	49	4067773.43	87.5	0.6550811999477446	1	0
314.3948571262881	0.8013795004226267	2	49	4067774.459	81.25	0.8824041001498699	2	0
315.19623662671074	0.8011663998477161	2	49	4067775.193	93.75	0.8152407999150455	2	0
315.99740302655846	0.8008998	2	49	4067775.899	93.75	0.7200314998626709	1	0
316.7983028264716	0.7991467001847923	2	49	4067776.721	100	0.7418996999040246	1	0
317.5974495266564	0.7957878997549415	1	0	0	0	0	0	0
318.39323742641136	0.7981612998992205	2	49	4067778.12	75	0.5450861002318561	1	0
319.1913987263106	0.7973248003982008	2	49	4067779.175	93.75	0.8021351001225412	2	0
319.9887235267088	0.8013788997195661	1	0	0	0	0	0	0
320.79010242642835	0.8002729001455009	2	49	4067780.559	81.25	0.5877717002294958	1	0
321.59037532657385	0.8027371000498533	2	49	4067781.714	75	0.9425297998823225	2	0
322.3931124266237	0.8005447997711599	2	49	4067782.4	87.5	0.8252837997861207	2	0
323.19365722639486	0.8012566003017128	2	49	4067783.325	75	0.9502030001021922	2	0
323.9949138266966	0.7994964998215437	2	49	4067784.038	87.5	0.8621160998009145	2	0
324.7944103265181	0.8001720998436213	2	49	4067784.766	93.75	0.7903932998888195	2	0
325.59458242636174	0.8015177003107965	2	49	4067785.652	81.25	0.8760307999327779	2	0
326.39610012667254	0.7980051999911666	1	0	0	0	0	0	0
327.1941053266637	0.7996614999137819	2	49	4067787.077	93.75	0.7016745996661484	1	0
327.9937668265775	0.7982924999669194	2	49	4067787.919	100	0.7437518001534045	1	0
328.7920593265444	0.8025623001158237	2	49	4067788.981	68.75	1.0076119997538626	2	0
329.5946216266602	0.7995672998949885	2	49	4067789.856	56.25	1.080060999840498	2	0
330.3941889265552	0.7999427001923323	2	49	4067790.427	87.5	0.8515689000487328	2	0
331.19413162674755	0.7996625998057425	1	49	4067791.322	75	0.9461215999908745	2	0
331.9937942265533	0.8001823998056352	2	49	4067791.997	93.75	0.8214711998589337	2	0
332.7939766263589	0.8019578	2	49	4067793.026	62.5	1.050857299938798	2	0
333.5959344	0.8039218001067638	2	49	4067793.879	56.25	1.1013207002542913	2	0
334.39985622651875	0.7992185	2	49	4067794.645	62.5	1.0642455997876823	2	0
335.19907472655177	0.8010656000114977	2	49	4067795.354	68.75	0.9739167997613549	2	0
336.00014032656327	0.8011027001775801	2	49	4067796.117	75	0.9357493999414146	2	0
336.80124302674085	0.8007978997193277	2	49	4067796.952	75	0.9697654996998608	2	0
337.6020409264602	0.8021426000632346	2	49	4067797.601	93.75	0.8180788001045585	2	0
338.4041835265234	0.8027431000955403	2	49	4067798.327	100	0.7418001000769436	1	0
339.20692662661895	0.8016182999126613	2	49	4067799.29	81.25	0.9021805999800563	2	0
340.0085449265316	0.8014736	2	0	0	0	0	0	0
340.8100185263902	0.8004980999976397	1	0	0	0	0	0	0
341.61051662638783	0.8022933001630008	1	49	4067801.384	81.25	0.5925571001134813	1	0
342.41280992655084	0.8012242000550032	2	49	4067802.243	87.5	0.64928	1	0
343.21403412660584	0.8010044	1	49	4067802.845	62.5	0.4493764000944793	1	0
344.0150385	0.7993326000869274	2	49	4067804.084	81.25	0.8881084998138249	2	0
344.8143711267039	0.8003674	2	49	4067804.734	100	0.7388168	1	0
345.6147385262884	0.8002648004330695	2	49	4067805.559	100	0.7634017001837492	1	0
346.4150033267215	0.8003786997869611	2	49	4067806.403	93.75	0.8065143995918334	2	0
347.21538202650845	0.7990409000776708	2	49	4067807.446	62.5	1.0494026998057961	2	0
348.0144229265861	0.8022424001246691	2	49	4067808.528	25	1.331842599902302	2	0
348.8166653267108	0.8020154000259936	2	49	4067809.034	62.5	1.0364606999792159	2	0
349.6186807267368	0.8023228999227285	2	49	4067809.604	93.75	0.8037277995608747	2	0
350.4210036266595	0.7998766000382602	1	0	0	0	0	0	0
351.2208802266978	0.8008305998519063	2	49	4067811.23	87.5	0.8274491997435689	2	0
352.0217108265497	0.7994333999231458	1	0	0	0	0	0	0
352.8211442264728	0.7999078999273479	2	49	4067812.651	87.5	0.6490342998877168	1	0
353.6210521264002	0.7996559999883175	2	49	4067813.884	56.25	1.0813295999541879	2	0
354.4207081263885	0.8000730001367629	2	49	4067814.317	93.75	0.7151713003404438	1	0
355.22078112652525	0.8016983000561595	2	49	4067815.17	100	0.7678195000626147	1	0
356.0224794265814	0.7982129	2	49	4067816	93.75	0.7962791998870671	2	0
356.8206923264079	0.8031150000169873	2	49	4067817.052	62.5	1.0505042001605034	2	0
357.62380732642487	0.8034862000495195	1	0	0	0	0	0	0
358.4272935264744	0.8007218	2	49	4067818.365	100	0.7562032002024353	1	0
359.22801532642916	0.8019241001456976	2	49	4067819.29	81.25	0.8805277002975345	2	0
360.02993942657486	0.8017514999955893	2	49	4067820.219	68.75	1.0077168997377157	2	0
360.83169092657045	0.8007332999259233	2	49	4067820.826	93.75	0.8131333999335766	2	0
361.63242422649637	0.7991316998377442	2	49	4067821.631	93.75	0.8171072001568973	2	0
362.4315559263341	0.8006395003758371	2	49	4067822.515	81.25	0.9022172000259161	2	0
363.23219542670995	0.8000722	2	49	4067823.236	87.5	0.8225569999776781	2	0
364.03226762637496	0.8015980003401637	2	49	4067824.105	81.25	0.8918934003449976	2	0
364.8338656267151	0.8017769996076822	2	49	4067824.868	87.5	0.8530706996098161	2	0
365.6356426263228	0.8003263003192842	2	49	4067825.706	81.25	0.8890719003975391	2	0
366.4359689266421	0.8013788997195661	2	49	4067826.589	75	0.9718263996765018	2	0
367.23734782636166	0.8006217000074685	2	49	4067827.469	62.5	1.0506237000226974	2	0
368.0379695263691	0.7996656000614166	1	0	0	0	0	0	0
368.83763512643054	0.8012584000825882	2	49	4067828.702	93.75	0.6831570998765528	1	0
369.63889352651313	0.7990381000563502	2	49	4067829.555	100	0.7348889000713825	1	0
370.4379316265695	0.8006297000683844	2	49	4067830.67	62.5	1.0510807000100613	2	0
371.23856132663786	0.8013602998107672	2	49	4067831.339	81.25	0.9194971998222172	2	0
372.03992162644863	0.7977900998666883	2	49	4067832.016	93.75	0.7950820000842214	2	0
372.8377117263153	0.8023091000504792	2	49	4067832.768	100	0.7493280000053346	1	0
373.6400208263658	0.8016479001380503	2	49	4067833.675	87.5	0.8541705999523401	2	0
374.44166872650385	0.8017159001901746	2	49	4067834.396	93.75	0.7731122998520732	2	0
375.2433846	0.8019983000122011	2	49	4067835.148	100	0.7234835997223854	1	0
376.0453829267062	0.8014806997962296	1	49	4067835.906	93.75	0.6795138	1	0
376.84686362650245	0.8014755002222955	2	49	4067836.798	100	0.7702113999985158	1	0
377.64833912672475	0.7999757998622954	1	0	0	0	0	0	0
378.44831492658705	0.8010552	2	49	4067838.358	100	0.7289331001229584	1	0
379.24937012651935	0.8016351000405848	2	49	4067839.45	68.75	1.018904000055045	2	0
380.05100522655994	0.8014222	1	0	0	0	0	0	0
380.8524274267256	0.7982435999438167	2	49	4067840.628	81.25	0.5941333998925984	1	0
381.65067102666944	0.8014770997688174	2	49	4067841.887	62.5	1.0551259000785649	2	0
382.45214812643826	0.8000965998508036	2	49	4067842.396	100	0.7624686001800001	1	0
383.25224472628906	0.8003039001487195	2	49	4067843.11	93.75	0.6760089001618326	1	0
384.0525486264378	0.7998168999329209	2	49	4067844.138	81.25	0.9038936998695135	2	0
384.8523655263707	0.8000338	2	49	4067844.779	100	0.7455708002671599	1	0
385.65239932667464	0.8020810000598431	2	49	4067845.737	81.25	0.9031264996156096	2	0
386.4544803267345	0.8036971995607018	2	49	4067846.433	93.75	0.7970628999173641	2	0
387.2581775262952	0.7994933002628386	2	49	4067847.279	87.5	0.8393600000999868	2	0
388.0576708	0.7994185001589358	2	49	4067848.065	87.5	0.8257431001402438	2	0
388.85708932671696	0.8015376999974251	2	49	4067849.032	68.75	0.9934874000027776	2	0
389.6586270267144	0.8022813997231424	2	49	4067849.965	50	1.124859499745071	2	0
390.4609084264375	0.7983208000659943	2	49	4067850.714	56.25	1.0717668998986483	2	0
391.2592292265035	0.8008187999948859	2	49	4067851.554	56.25	1.1139242998324335	2	0
392.0600480264984	0.8022957001812756	2	49	4067852.408	50	1.166820399928838	2	0
392.8623437266797	0.8025835999287665	2	49	4067853.036	68.75	0.9926976999267936	2	0
393.66492732660845	0.7998584997840226	1	0	0	0	0	0	0
394.4647858263925	0.8013177001848817	2	49	4067854.221	81.25	0.5751041	1	0
395.26610352657735	0.8015695000067353	1	49	4067855.162	93.75	0.7141547999344766	1	0
396.0676730265841	0.8004462998360395	2	49	4067856.079	87.5	0.8300725999288261	2	0
396.8681193264201	0.8000818002037704	2	49	4067857.025	68.75	0.9756261	2	0
397.6682011266239	0.8021613000892103	2	49	4067857.739	81.25	0.8897051997482777	2	0
398.4703624267131	0.8007073998451233	2	49	4067858.374	100	0.7224146998487413	1	0
399.27106982655823	0.8012469997629523	2	49	4067859.141	93.75	0.6882096999324858	1	0
400.0723168263212	0.8000268000178039	1	0	0	0	0	0	0
400.8723436	0.8002603002823889	2	49	4067860.687	87.5	0.6335039003752172	1	0
401.6726039266214	0.8019534996710718	2	49	4067861.587	100	0.7332603000104427	1	0
402.47455742629245	0.7994859	2	49	4067862.373	93.75	0.7171630002558231	1	0
403.27404332673177	0.8005295000039041	2	49	4067863.271	93.75	0.8161122999154031	2	0
404.0745728267357	0.8000759999267757	2	49	4067864.264	68.75	1.0085773998871446	2	0
404.87464882666245	0.8012672998011112	2	49	4067864.87	93.75	0.8142655999399722	2	0
405.67591612646356	0.7995187998749316	2	49	4067866.065	43.75	1.2074282998219132	2	0
406.4754349263385	0.7994735003449023	2	49	4067866.803	50	1.1467090002261102	2	0
407.2749084266834	0.8007934000343084	2	49	4067867.501	62.5	1.044815399684012	2	0
408.0757018267177	0.7997613996267319	2	49	4067868.291	62.5	1.033951399847865	2	0
408.87546322634444	0.8029062002897263	2	49	4067868.855	93.75	0.7978215	2	0
409.67836942663416	0.7985576000064611	2	49	4067869.521	87.5	0.6614121999591589	1	0
410.4769270266406	0.8012691996991634	2	49	4067870.431	93.75	0.7723880000412464	2	0
411.2781962263398	0.8006673003546894	2	49	4067871.219	100	0.7592886001802981	1	0
412.0788635266945	0.8011459996923804	2	49	4067872.046	93.75	0.7860145997256041	2	0
412.88000952638686	0.8015429000370204	2	49	4067873.11	62.5	1.049174299929291	2	0
413.6815524264239	0.7994244	2	49	4067873.824	75	0.9614643999375403	2	0
414.4809768265113	0.8016979000531137	2	49	4067874.612	75	0.9496860997751355	2	0
415.28267472656444	0.8005558	2	49	4067875.426	75	0.9620960000902414	2	0
416.0832305266522	0.7985680000856519	2	49	4067876.171	81.25	0.9060235000215471	2	0
416.88179852673784	0.7987825996242464	2	49	4067877.102	62.5	1.038755599875003	2	0
417.6805811263621	0.7999543999321759	2	0	0	0	0	0	0
418.48053552629426	0.7988397004082799	2	49	4067878.278	81.25	0.6160287000238895	1	0
419.27937522670254	0.7993315998464823	2	49	4067879.211	100	0.7504194998182356	1	0
420.0787068	0.7998465001583099	2	49	4067879.976	93.75	0.7161944000981748	1	0
420.87855332670733	0.8006724999286234	2	49	4067880.69	87.5	0.6301047997549176	1	0
421.67922582663596	0.8021652000024915	1	49	4067881.504	87.5	0.6434030998498201	1	0
422.48139102663845	0.7991073997691274	2	49	4067882.438	93.75	0.7754579000174999	2	0
423.2804984264076	0.7999547002837062	1	0	0	0	0	0	0
424.0804531266913	0.8003408997319639	2	49	4067883.884	87.5	0.6224436997435987	1	0
424.88079402642325	0.8000229001045227	2	49	4067884.859	93.75	0.7970895	2	0
425.68081692652777	0.801187	2	49	4067885.672	93.75	0.8102415	2	0
426.4820039262995	0.8006755001842976	2	49	4067886.569	81.25	0.9058103002607822	2	0
427.2826794264838	0.8001608001068234	1	0	0	0	0	0	0
428.08284022659063	0.7998449997976422	1	0	0	0	0	0	0
428.8826852263883	0.7996801999397576	2	49	4067888.856	93.75	0.7919725002720952	2	0
429.68236542632803	0.8016477003693581	2	49	4067889.652	93.75	0.7882986003533006	2	0
430.4840131266974	0.8008143999613822	2	49	4067890.457	93.75	0.7917382996529341	2	0
431.2848275266588	0.8019354999996722	2	49	4067891.447	68.75	0.9809817997738719	2	0
432.08676302665845	0.8017458999529481	2	49	4067892.201	75	0.9330818997696042	2	0
432.8885089266114	0.8033380997367203	2	49	4067893.015	75	0.9452927997335792	2	0
433.6918470263481	0.7998246001079679	2	49	4067893.661	93.75	0.7881340002641082	2	0
434.4916716264561	0.8005821001715958	2	49	4067894.447	93.75	0.7743290001526475	2	0
435.2922537266277	0.8005423997528851	2	49	4067895.176	93.75	0.7026025000959635	1	0
436.09279612638056	0.8007363001815975	2	49	4067896.114	87.5	0.8398780003190041	2	0
436.89353242656216	0.8024682998657227	1	0	0	0	0	0	0
437.6960007264279	0.8021539002656937	2	49	4067897.541	87.5	0.6641414002515376	1	0
438.4981546266936	0.8006267999298871	2	49	4067898.486	93.75	0.8068878999911249	2	0
439.29878142662346	0.8014655997976661	2	49	4067899.367	81.25	0.8872044999152422	2	0
440.10024702642113	0.8014948000200093	2	49	4067900.351	62.5	1.0698243002407253	2	0
440.90174182644114	0.8014414	2	49	4067901.174	56.25	1.0912692002020776	2	0
441.70318322628736	0.8002193002030253	2	49	4067901.969	56.25	1.084076900035143	2	0
442.5034025264904	0.7998758000321686	2	49	4067902.93	37.5	1.2457566000521183	2	0
443.30327832652256	0.8007593997754157	2	49	4067903.406	75	0.9219283000566065	2	0
444.1040377	0.8000886	2	49	4067904.042	100	0.7570955003611743	1	0
444.9041263265535	0.8020548997446895	2	49	4067904.991	81.25	0.9060447001829743	2	0
445.7061812262982	0.8014105004258454	2	49	4067905.892	68.75	1.004523000214249	2	0
446.50759172672406	0.8006020998582244	2	49	4067906.623	75	0.9343389	2	0
447.3081938265823	0.7998142000287771	1	0	0	0	0	0	0
448.10800802661106	0.8007370997220278	2	49	4067908.051	100	0.7619127999059856	1	0
448.9087451263331	0.8022000002674758	2	49	4067909.108	68.75	1.0177441001869738	2	0
449.71094512660056	0.8035833	2	49	4067909.621	100	0.7292367997579277	1	0
450.5145284263417	0.8006103001534939	2	49	4067910.226	75	0.5300667001865804	1	0
451.3151387264952	0.8040042999200523	2	49	4067910.974	68.75	0.4771404000930488	1	0
452.11914302641526	0.8003408000804484	2	49	4067911.798	68.75	0.4974960000254214	1	0
452.9194838264957	0.8018097002059221	2	49	4067912.571	62.5	0.4704343001358211	1	0
453.72129352670163	0.8016879996284842	2	49	4067913.299	56.25	0.3961436999961734	1	0
454.5229815263301	0.8010014002211392	2	49	4067914.148	62.5	0.4434101	1	0
455.32398292655125	0.8006771001964808	2	49	4067915.034	75	0.5284414999186993	1	0
456.12466002674773	0.8009794	2	49	4067915.774	62.5	0.4677776996977627	1	0
456.9256394263357	0.8025171002373099	1	49	4067916.498	56.25	0.39114850014448166	1	0
457.7281565	0.8005729001015425	2	49	4067917.773	87.5	0.8632252998650074	2	0
458.52872942667454	0.8003597999922931	2	49	4067918.559	87.5	0.8489700998179615	2	0
459.32908922666684	0.8005694998428226	2	49	4067919.201	93.75	0.6907750000245869	1	0
460.12965872650966	0.8005889002233744	2	49	4067919.97	87.5	0.6589069999754429	1	0
460.93024762673303	0.8004335998557508	2	49	4067920.74	87.5	0.6283744997344911	1	0
461.7306812265888	0.8004026999697089	2	49	4067921.486	81.25	0.5738870999775827	1	0
462.5310839265585	0.8028501998633146	2	49	4067922.434	93.75	0.7217284999787807	1	0
463.3339341264218	0.8008225001394749	2	49	4067923.144	87.5	0.628802	1	0
464.1347566265613	0.8024805998429656	2	49	4067924.132	93.75	0.8162505999207497	2	0
464.93723722640425	0.8021518001332879	2	49	4067924.997	81.25	0.8785067000426352	2	0
465.73938902653754	0.8018107	2	49	4067925.715	93.75	0.7942981999367476	2	0
466.54119972651824	0.8019261001609266	2	49	4067926.654	75	0.9315484999679029	2	0
467.34312582667917	0.8005720996297896	2	49	4067927.396	87.5	0.8717798	2	0
468.14369792630896	0.8006784003227949	2	49	4067928.149	87.5	0.8241587001830339	2	0
468.94437632663175	0.8010505000129342	1	49	4067928.954	87.5	0.8284513000398874	2	0
469.7454268266447	0.8021374996751547	2	0	0	0	0	0	0
470.54756432631984	0.8019505999982357	2	49	4067930.319	81.25	0.5903513999655843	1	0
471.3495149263181	0.7988563003018498	2	49	4067931.327	93.75	0.7964984001591802	2	0
472.14837122661993	0.8003990999422967	2	49	4067932.152	87.5	0.8219387996941805	2	0
472.9487703265622	0.8020939999260008	1	0	0	0	0	0	0
473.7508643264882	0.8009597999043763	2	49	4067933.679	100	0.7471509999595582	1	0
474.5518241263926	0.8027349002659321	1	49	4067934.595	87.5	0.8616822003386915	2	0
475.35455902665854	0.7997992997989058	2	49	4067935.418	81.25	0.8816944998688996	2	0
476.15435832645744	0.8024442000314593	1	0	0	0	0	0	0
476.9568025264889	0.8007380999624729	2	49	4067936.796	87.5	0.6581966001540422	1	0
477.7575406264514	0.8042692998424172	2	49	4067937.766	87.5	0.8274165000766516	2	0
478.5618099262938	0.8007780001498759	2	49	4067938.728	68.75	0.9845489002764225	2	0
479.36258792644367	0.8024182999506593	2	49	4067939.491	75	0.9466857998631895	2	0
480.1650062263943	0.7998755001462996	2	49	4067940.465	56.25	1.1188849001191556	2	0
480.9648817265406	0.8017170000821352	2	0	0	0	0	0	0
481.76659872662276	0.8005210999399424	2	49	4067941.637	93.75	0.688806	1	0
482.5671198265627	0.7988817	2	49	4067942.799	62.5	1.0508980001322925	2	0
483.36600152635947	0.8011648003011942	2	49	4067943.461	81.25	0.9139662003144622	2	0
484.16716632666066	0.7987620998173952	2	49	4067944.234	81.25	0.8856247998774052	2	0
484.96592842647806	0.7998811001889408	2	49	4067945.044	81.25	0.8964885	2	0
485.7658095	0.8017933997325599	2	49	4067946.022	56.25	1.0745681999251246	2	0
486.56760292639956	0.8002479001879692	1	0	0	0	0	0	0
487.3678508265875	0.8020187998190522	2	49	4067947.207	87.5	0.6579893999733031	1	0
488.1698696264066	0.7988495999015868	2	49	4067948.12	100	0.7687105000950396	1	0
488.96871922630817	0.8022582000121474	1	49	4067948.873	93.75	0.7228374001570046	1	0
489.7709774263203	0.8000490004196763	2	49	4067949.667	93.75	0.7150439000688493	1	0
490.5710264	0.8015010999515653	1	0	0	0	0	0	0
491.37252752669156	0.8001699997112155	2	49	4067951.167	81.25	0.6135047	1	0
492.17269752640277	0.8031422002241015	2	49	4067952.283	75	0.9288679002784193	2	0
492.9758397266269	0.8011764	2	49	4067953.191	62.5	1.0338465999811888	2	0
493.77701612655073	0.8042946998029947	2	49	4067954.18	43.75	1.221977099776268	2	0
494.58131082635373	0.8000000002793968	2	49	4067954.701	75	0.9386149002239108	2	0
495.3813108266331	0.8010239996947348	2	49	4067955.443	81.25	0.8804013999179006	2	0
496.18233482632786	0.7991542001254857	2	49	4067956.143	93.75	0.7792011	2	0
496.98148902645335	0.8012792998924851	2	49	4067957.047	81.25	0.8847473999485373	2	0
497.78276832634583	0.8001691000536084	2	49	4067957.851	81.25	0.8870488000102341	2	0
498.58293742639944	0.8023629002273083	2	49	4067958.751	68.75	0.9870513998903334	2	0
499.38530032662675	0.7999096000567079	2	49	4067959.43	87.5	0.8629799000918865	2	0
500.18520992668346	n/a	0	0	0	0	0	0	0