onset	duration	cue	constant1	timestamp	stimulus_coherence	response_time	response	constant2
20.69561001670081	0.8193994000321254	2	49	609913.8252	93.75	0.7896367000648752	2	0
21.515009416732937	0.8190713999792933	2	49	609914.5502	93.75	0.6952582999365404	1	0
22.33408081671223	0.8638574000215158	2	49	609915.2441	68.75	0.5700767999514937	1	0
23.197938216733746	0.8164681999478489	2	49	609916.1225	81.25	0.5845963000319898	1	0
24.014406416681595	0.8118003000272438	2	49	609917.0983	100	0.7439337000250816	1	0
24.82620671670884	0.8161313000600785	2	49	609917.8695	93.75	0.7033250000094995	1	0
25.642338016768917	0.8137946999631822	2	49	609918.7194	100	0.7370719999307767	1	0
26.45613272	0.8149382999399677	2	49	609919.5114	93.75	0.7153086999896914	1	0
27.271071016672067	0.8242016000440344	2	49	609920.3405	93.75	0.7294511999934912	1	0
28.09527262	0.8204440999543294	1	49	609921.1895	100	0.7542673000134528	1	0
28.91571671667043	0.8091327000875026	1	0	0	0	0	0	0
29.724849416757934	0.8119499000022188	2	49	609922.8819	93.75	0.8170757999178022	2	0
30.536799316760153	0.8106274999445304	2	49	609923.7634	81.25	0.8866808000020683	2	0
31.347426816704683	0.8133658999577165	2	49	609924.4705	100	0.7830684999935329	1	0
32.16079272	0.8115654001012444	2	49	609925.2579	100	0.7571535	1	0
32.972358116763644	0.8108081999234855	2	49	609926.1485	87.5	0.8362146998988464	2	0
33.78316631668713	0.8109550999943167	2	49	609926.9728	87.5	0.8496647999854758	2	0
34.594121416681446	0.8239076000172645	2	49	609927.6356	93.75	0.7015394000336528	1	0
35.41802901669871	0.8130164999747649	2	49	609928.4767	93.75	0.7186717999866232	1	0
36.231045516673476	0.8222111000213772	2	49	609929.3377	100	0.7666890000691637	1	0
37.05325661669485	0.8178530000150204	2	49	609930.0729	87.5	0.6796757000265643	1	0
37.87110961670987	0.8100660999771208	1	0	0	0	0	0	0
38.681175716686994	0.8179703999776393	2	49	609931.6359	81.25	0.6147901000222191	1	0
39.49914611666463	0.8143291000742465	2	49	609932.5247	93.75	0.6855540000833571	1	0
40.31347521673888	0.8125309000024572	2	49	609933.3098	87.5	0.6563612999161705	1	0
41.12600611674134	0.8147197000216693	2	49	609934.1849	93.75	0.7189320999896154	1	0
41.940725816763006	0.8216544999741018	2	49	609935.1455	87.5	0.8648340998915955	2	0
42.76238031673711	0.8148461999371648	2	49	609935.9388	93.75	0.8364598	2	0
43.57722651667427	0.8080175000941381	2	49	609936.7279	93.75	0.8107225000858307	2	0
44.38524401676841	0.8151445999974385	2	49	609937.5629	93.75	0.8376565999351442	2	0
45.20038861676585	0.8131527	1	0	0	0	0	0	0
46.01354131672997	0.8201822999399155	1	0	0	0	0	0	0
46.833723616669886	0.8140036000404507	1	0	0	0	0	0	0
47.64772721671034	0.8217206000117585	1	49	609940.9769	75	0.9892069000052288	2	0
48.469447816722095	0.8108658000128344	2	49	609942.0871	37.5	1.2776398999849334	2	0
49.28031361673493	0.8223935000132769	1	0	0	0	0	0	0
50.102707116748206	0.8146426000166684	2	49	609943.3791	81.25	0.9364361999323592	2	0
50.917349716764875	0.8160513999173418	2	49	609944.0934	93.75	0.8360929999034852	2	0
51.73340111668222	0.8158497	2	49	609944.8093	100	0.7358996000839397	1	0
52.54925081669353	0.8131560999900103	2	49	609945.6662	100	0.7770004000049084	1	0
53.36240691668354	0.8109035000670701	2	49	609946.524	93.75	0.8216768000274897	2	0
54.17331041675061	0.8163237000117078	2	49	609947.3073	93.75	0.7940227999351919	2	0
54.98963411676232	0.8186221999349073	2	49	609948.0288	93.75	0.6991653	1	0
55.808256316697225	0.8204311999725178	2	49	609948.9012	100	0.7530086999759078	1	0
56.62868751666974	0.8175028000259772	2	49	609949.7524	100	0.7837937000440434	1	0
57.44619031669572	0.8190848999656737	2	49	609950.6242	93.75	0.8380896999733523	2	0
58.265275216661394	0.8213169000810012	2	49	609951.4603	87.5	0.8551045000785962	2	0
59.086592116742395	0.8168571999995038	1	0	0	0	0	0	0
59.90344932	0.8168853999814019	2	49	609952.9945	100	0.7510735000250861	1	0
60.72033472	0.8102830999996513	2	49	609953.8295	100	0.7691849	1	0
61.53061781672295	0.8152701000217348	2	49	609954.5513	87.5	0.6806914999615401	1	0
62.34588791674469	0.8148996999952942	2	49	609955.4256	100	0.7397115000057966	1	0
63.16078761673998	0.8255933999316767	1	0	0	0	0	0	0
63.98638101667166	0.8124288000399247	2	49	609957.1248	93.75	0.7984306000871584	2	0
64.79880981671158	0.8119820000138134	2	49	609957.9464	93.75	0.8076654999749735	2	0
65.61079182	0.8175673999357969	2	49	609958.7835	93.75	0.8327898000134155	2	0
66.42835921666119	0.8127962000435218	2	49	609959.6746	81.25	0.9062521000159904	2	0
67.24115541670471	0.8137442000443116	2	49	609960.3901	93.75	0.8089913000585511	2	0
68.05489961674903	0.8133748999098316	2	49	609961.1568	100	0.7619145999196917	1	0
68.86827451665886	0.8180094000417739	1	49	609961.9718	100	0.7635283001000062	1	0
69.68628391670063	0.8130249000387266	2	49	609963.0558	68.75	1.029537900001742	2	0
70.49930881673936	0.8193446999648586	2	49	609963.6326	93.75	0.7933185	2	0
71.31865351670422	0.8126236000098288	2	49	609964.4087	100	0.7500744999852031	1	0
72.13127711671405	0.8170048999600112	2	49	609965.2988	93.75	0.8275612000143155	2	0
72.94828201667406	0.81687	2	49	609966.1388	87.5	0.8505497000878677	2	0
73.76515201665461	0.8135043000802398	2	49	609966.9508	87.5	0.8456896001007408	2	0
74.57865631673485	0.8174053999828175	2	49	609967.8609	75	0.9422532999888062	2	0
75.39606171671767	0.8199298999970779	2	49	609968.445	93.75	0.7089663000078872	1	0
76.21599161671475	0.8202525000087917	2	49	609969.3489	93.75	0.7929585999809206	2	0
77.03624411672354	0.8145713999401778	2	49	609970.3108	81.25	0.9345673000207171	2	0
77.85081551666372	0.8086379000451416	2	49	609971.0611	87.5	0.8703202001051977	2	0
78.65945341670886	0.8152108000358567	2	49	609971.7919	93.75	0.7924711999949068	2	0
79.47466421674471	0.8165912999538705	2	49	609972.611	93.75	0.7963983999798074	2	0
80.29125551669858	0.8196093000005931	2	49	609973.4462	93.75	0.8150134000461549	2	0
81.11086481669918	0.8156862000469118	2	49	609974.248	93.75	0.7971788999857381	2	0
81.92655101674609	0.8157966999569908	1	0	0	0	0	0	0
82.74234771670308	0.8174115000292659	2	49	609975.8463	100	0.7640335999894887	1	0
83.55975921673235	0.8155179999303073	1	49	609976.7745	87.5	0.8747311999322847	2	0
84.37527721666265	0.8109783000545576	2	0	0	0	0	0	0
85.18625551671721	0.8186995999421924	2	49	609977.9601	62.5	0.4338644000235945	1	0
86.00495512	0.8162199000362307	2	49	609978.8996	75	0.5546782000456005	1	0
86.82117501669563	0.8160411000717431	2	49	609979.7834	81.25	0.6222406000597402	1	0
87.63721611676738	0.8198323999531567	1	49	609980.7252	100	0.7480461999075487	1	0
88.45704851672053	0.8115364999976009	2	49	609981.5643	100	0.7673328999662772	1	0
89.26858501671813	0.8199572999728844	2	49	609982.2032	81.25	0.5946775999618694	1	0
90.08854231669102	0.8141855000285432	2	49	609983.1702	100	0.7416637999704108	1	0
90.90272781671956	0.8165622999658808	2	49	609984.0244	100	0.7816675000358373	1	0
91.71929011668544	0.8169203	2	49	609984.8925	93.75	0.8332676000427455	2	0
92.53621041669976	0.8149091000668705	2	49	609985.6663	93.75	0.7901145999785513	2	0
93.35111951676663	0.8218957999488339	2	49	609986.5064	93.75	0.8153138998895884	2	0
94.17301531671546	0.8172593000344932	2	49	609987.2564	100	0.7434396999888122	1	0
94.99027461674996	0.8188994999509305	2	49	609988.1514	93.75	0.8211349	2	0
95.80917411670089	0.8139233000110835	2	49	609988.8988	100	0.7496804000111297	1	0
96.62309741671197	0.8155905000166968	2	49	609989.7524	100	0.7893488999688998	1	0
97.43868791672867	0.8205798999406397	2	49	609990.5704	100	0.7917389000067487	1	0
98.25926781666931	0.8142392000881955	2	49	609991.3725	100	0.7732233999995515	1	0
99.07350702	0.8234899999806657	2	49	609992.1416	93.75	0.7280966999242082	1	0
99.89699701673817	0.8102303	2	49	609993.0085	100	0.7715222999686375	1	0
100.70722731668502	0.8149213	2	49	609993.8766	93.75	0.8294421000173315	2	0
101.52214861672837	0.8099132999777794	1	49	609994.9456	62.5	1.0834734999807552	2	0
102.33206191670615	0.8161429000319913	2	0	0	0	0	0	0
103.14820481673814	0.8140605000080541	2	49	609996.1094	81.25	0.6211928999982774	1	0
103.9622653167462	0.8187776999548078	2	49	609997.1779	87.5	0.8756348999449983	2	0
104.781043	0.8135058999760076	2	49	609998.0576	81.25	0.9365447000600398	2	0
105.59454891667701	0.8189475000835955	2	49	609998.7696	93.75	0.8351004000287503	2	0
106.41349641676061	0.8165823000017554	2	49	609999.8119	62.5	1.0584127999609336	2	0
107.23007871676236	0.8171005999902263	2	49	610000.6758	56.25	1.1057341999839991	2	0
108.04717931675259	0.8085599999176338	2	49	610001.1977	93.75	0.8105631999205798	2	0
108.85573931667022	0.8267946	2	49	610001.7938	81.25	0.5980660000350326	1	0
109.68253391666804	0.8125921000028029	1	49	610002.706	93.75	0.6835110000101849	1	0
110.49512601667084	0.8099836	1	49	610003.7027	87.5	0.8676361000398174	2	0
111.30510961671825	0.8158404999412596	2	49	610004.6168	75	0.9716803999617696	2	0
112.12095011665951	0.8183331000618637	2	49	610005.387	81.25	0.9260820000199601	2	0
112.93928321672138	0.8139885000418872	2	49	610006.121	87.5	0.8417063	2	0
113.75327171676327	0.8198134999256581	2	49	610006.9319	93.75	0.8386947999242693	2	0
114.57308521668892	0.8159977999748662	2	49	610007.82	81.25	0.9069969999836758	2	0
115.38908301666379	0.8164902999997139	2	49	610008.5199	93.75	0.7908749000634998	2	0
116.2055733166635	0.8131393000949174	2	49	610009.3339	93.75	0.7884016000898555	2	0
117.01871261675842	0.8198242000071332	2	49	610010.154	93.75	0.7953172998968512	2	0
117.83853681676555	0.8164644999196753	2	49	610010.9009	93.75	0.7224458999698982	1	0
118.65500131668523	0.8130292	2	49	610011.7724	100	0.7774198000552133	1	0
119.4680305167567	0.8195067999185994	2	49	610012.6101	93.75	0.8020927	2	0
120.2875373166753	0.8208874000702053	2	49	610013.3181	93.75	0.6905754000181332	1	0
121.1084247167455	0.8066637	2	49	610014.3038	87.5	0.8553792999591678	2	0
121.91508841665927	0.8177998000755906	2	49	610015.1252	87.5	0.8701509000966325	2	0
122.73288821673486	0.8186130999820307	2	49	610015.7222	87.5	0.6493456999305636	1	0
123.5515013167169	0.8159044999629259	2	49	610016.6192	93.75	0.7277450000401586	1	0
124.36740581667982	0.8152933000819758	1	49	610017.6495	75	0.9421164999948815	2	0
125.1826991167618	0.8156566999386996	2	0	0	0	0	0	0
125.9983558167005	0.8175394999561831	2	49	610018.8813	75	0.5429334	1	0
126.81589531665668	0.8132591000758111	2	49	610019.6792	68.75	0.5233836000552401	1	0
127.62915441673249	0.8225770000135526	2	49	610020.5904	81.25	0.6213263999670744	1	0
128.45173141674604	0.8231205999618396	2	49	610021.4479	87.5	0.6561731999972835	1	0
129.27485201670788	0.8174662999808788	2	49	610022.3013	87.5	0.6865276000462472	1	0
130.09231831668876	0.8131350000621751	2	49	610023.1844	100	0.7521255000028759	1	0
130.90545331675094	0.8130436999490485	2	49	610023.9824	100	0.7369564999826252	1	0
131.71849701669998	0.8119022999890149	2	49	610024.7627	93.75	0.7042183000594378	1	0
132.5303993	0.8109900000272319	1	49	610025.6085	100	0.7381773	1	0
133.34138931671623	0.8202446999493986	2	49	610026.5854	81.25	0.9040170999942347	2	0
134.16163401666563	0.8213320000795648	2	49	610027.2454	100	0.7438224999932572	1	0
134.9829660167452	0.8124302999349311	2	49	610028.0575	100	0.7345716999843717	1	0
135.79539631668013	0.8139350999845192	2	49	610029.1165	75	0.9811155999777839	2	0
136.60933141666465	0.8191004000836983	2	49	610029.5737	81.25	0.6243935000384226	1	0
137.42843181674834	0.8188362999353558	2	49	610030.5326	100	0.7642033000010997	1	0
138.2472681166837	0.8138221	2	49	610031.539	75	0.9517873000586405	2	0
139.0610902167391	0.8136764999944717	2	49	610032.1841	93.75	0.7830895999213681	2	0
139.87476671673357	0.8129429999971762	2	49	610032.9596	100	0.7448909999802709	1	0
140.68770971673075	0.8195211000274867	2	49	610033.7717	100	0.7440214999951422	1	0
141.50723081675824	0.8156469999812543	2	49	610034.6367	93.75	0.7895023999735713	2	0
142.3228778167395	0.8128546	2	49	610035.4447	100	0.7818126999773085	1	0
143.13573241676204	0.8206674999091774	2	49	610036.2308	100	0.7550703999586403	1	0
143.95639991667122	0.8219383000396192	2	49	610037.18	87.5	0.8836117000319064	2	0
144.77833821671084	0.8135611000470817	2	49	610037.9926	87.5	0.8743407999863848	2	0
145.59189931675792	0.8200435999315232	2	49	610038.9889	62.5	1.0569863999262452	2	0
146.41194291668944	0.8094065000768751	2	49	610039.6858	75	0.9339229000033811	2	0
147.22134941676632	0.8148418999044225	1	0	0	0	0	0	0
148.03619131667074	0.8129351	2	49	610041.017	87.5	0.6408318	1	0
148.84912641672418	0.8147140999790281	2	49	610041.9612	100	0.7721581000369042	1	0
149.6638405167032	0.8170885000145063	2	49	610042.82	93.75	0.8161450000479817	2	0
150.4809290167177	0.8131068999646232	2	49	610043.5862	100	0.7652913000201806	1	0
151.29403591668233	0.8127426999853924	2	49	610044.573	75	0.9390012000221759	2	0
152.10677861666773	0.8134562000632286	2	49	610045.1752	93.75	0.7285026999888942	1	0
152.92023481673095	0.8159660999663174	1	49	610045.7882	68.75	0.5280291999224573	1	0
153.73620091669727	0.8062756999861449	2	49	610046.7031	81.25	0.6269304000306875	1	0
154.54247661668342	0.8097929	2	49	610047.6182	100	0.7357428000541404	1	0
155.35226951667573	0.8098814	2	49	610048.5732	81.25	0.8809674000367522	2	0
156.16215091675986	0.8142973	2	49	610049.2691	100	0.7670122999697924	1	0
156.97644821670838	0.8105756000149995	2	49	610050.0675	100	0.7510641999542713	1	0
157.78702381672338	0.8089390000095591	1	49	610050.9393	93.75	0.8122691999888048	2	0
158.59596281673294	0.8127956999232993	1	0	0	0	0	0	0
159.40875851665623	0.8154085000278428	2	49	610052.6493	81.25	0.9005506000248715	2	0
160.22416701668408	0.8154869000427425	1	49	610053.3474	100	0.7833009000169113	1	0
161.03965391672682	0.8158136999700218	1	0	0	0	0	0	0
161.85546761669684	0.8170655000722036	2	49	610054.8943	93.75	0.6988883999874815	1	0
162.67253311676905	0.8154867999255657	2	49	610055.7024	93.75	0.6899125999771059	1	0
163.4880199166946	0.8151659000432119	2	49	610056.4935	87.5	0.6654782000696287	1	0
164.30318581673782	0.8179961999412626	2	49	610057.3195	87.5	0.6763034999603406	1	0
165.1211820166791	0.8185058999806643	2	49	610058.1345	87.5	0.6734016999835148	1	0
165.93968791665975	0.8134695	2	49	610058.9185	87.5	0.6388843000167981	1	0
166.75315741670784	0.8157091999892145	2	49	610059.8365	100	0.7434024000540376	1	0
167.56886661669705	0.8146301000379026	2	49	610060.6038	93.75	0.6949870999669656	1	0
168.38349671673495	0.8193623999832198	2	49	610061.4614	100	0.7379688000073656	1	0
169.20285911671817	0.8152639999752864	1	49	610062.3389	93.75	0.7961196999531239	2	0
170.01812311669346	0.8233646000735462	2	49	610063.1697	93.75	0.8116017000284046	2	0
170.8414877	0.8212849999545142	2	49	610063.9465	100	0.7650759	1	0
171.66277271672152	0.8093769999686629	2	49	610064.6559	87.5	0.6531998999416828	1	0
172.47214971669018	0.8115616000723094	2	49	610065.8057	68.75	0.9935622999910265	2	0
173.2837113167625	0.8141076999017969	2	49	610066.5499	81.25	0.9261918999254704	2	0
174.0978190166643	0.8150587000418454	1	0	0	0	0	0	0
174.91287771670613	0.8185587000334635	2	49	610068.3257	62.5	1.0728893999475986	2	0
175.7314364167396	0.8236853999551386	2	49	610068.8917	93.75	0.8203049999428913	2	0
176.55512181669474	0.8149491000222042	2	49	610069.5338	87.5	0.6386947999708354	1	0
177.37007091671694	0.8122758000390604	2	49	610070.2968	81.25	0.5867500000167638	1	0
178.1823467	0.8168501999462023	2	49	610071.3148	93.75	0.7924428000114858	2	0
178.9991969167022	0.8180601999629289	2	49	610072.2129	87.5	0.8737496000248939	2	0
179.81725711666513	0.8151586001040414	2	49	610073.0226	87.5	0.8653277000412345	2	0
180.63241571676917	0.8118602999020368	2	49	610073.7764	93.75	0.8040411999681965	2	0
181.4442760166712	0.8148439000360668	2	49	610074.4159	81.25	0.6316590000642464	1	0
182.25911991670728	0.8184135999763384	2	49	610075.3145	93.75	0.7154264999553561	1	0
183.07753351668362	0.8141252000350505	2	49	610076.0454	81.25	0.6279241000302136	1	0
183.89165871671867	0.8189318	2	49	610076.8149	81.25	0.5833187999669462	1	0
184.71059051668271	0.8131109999958426	2	49	610077.583	75	0.5324356000637636	1	0
185.52370151667856	0.8192845000885427	1	49	610078.4183	75	0.5546097999904305	1	0
186.3429860167671	0.8191472999751568	2	49	610079.2762	81.25	0.5932418999727815	1	0
187.16213331674226	0.8159431000240147	1	49	610080.2411	93.75	0.7389515999238938	1	0
187.97807641676627	0.8215057998895645	1	0	0	0	0	0	0
188.79958221665584	0.8167301000794396	2	49	610081.9552	93.75	0.8156203	2	0
189.61631231673528	0.8123395	2	49	610082.7958	87.5	0.8395188000285998	2	0
190.4286518166773	0.8114596	2	49	610083.6672	81.25	0.8985375000629574	2	0
191.24011141667143	0.8141120000509545	2	49	610084.2692	93.75	0.6890748	1	0
192.05422341672238	0.8170926000457257	2	49	610084.9702	75	0.5760147999972105	1	0
192.8713160167681	0.8153632999164984	2	49	610085.7713	75	0.5599750999826938	1	0
193.6866793166846	0.8137839	2	49	610086.5196	68.75	0.49294720008037984	1	0
194.50046321668196	0.8159806000767276	2	49	610087.5042	87.5	0.6637521	1	0
195.3164438167587	0.8163652999792248	2	49	610088.4722	93.75	0.8158363999100402	2	0
196.13280911673792	0.8173277	2	49	610089.3223	87.5	0.8495370999444276	2	0
196.95013681671117	0.8225098999682814	2	49	610090.1633	87.5	0.8731740999501199	2	0
197.77264671667945	0.8122622000519186	2	49	610090.8885	100	0.7759307000087574	1	0
198.58490891673137	0.8135350999655202	2	49	610091.6508	93.75	0.7259395000291988	1	0
199.39844401669689	0.8170902000274509	2	49	610092.4378	93.75	0.6993574000662193	1	0
200.21553421672434	0.81937	2	49	610093.2405	87.5	0.6849648000206798	1	0
201.03490421676543	0.8125428999774158	2	49	610094.3464	75	0.9715786000015214	2	0
201.84744711674284	0.8173644000198692	1	49	610094.9325	100	0.7451238000066951	1	0
202.6648115167627	0.8153672999469563	2	49	610095.8395	93.75	0.8347661999287084	2	0
203.48017881670967	0.8170388999860734	2	49	610096.6975	87.5	0.8773247000062838	2	0
204.29721771669574	0.8263520000036806	1	0	0	0	0	0	0
205.12356971669942	0.8088384000584483	2	49	610098.1429	93.75	0.6793831000104547	1	0
205.93240811675787	0.8181430998956785	2	49	610098.9256	87.5	0.6532265999121591	1	0
206.75055121665355	0.8138139001093805	2	49	610099.6834	81.25	0.5928550000535324	1	0
207.56436511676293	0.8136998999398202	2	49	610100.4336	68.75	0.5292869999539107	1	0
208.37806501670275	0.8137108000228181	2	49	610101.4126	93.75	0.6946121000219136	1	0
209.19177581672557	0.8180596999591216	2	49	610102.1788	87.5	0.6470112	1	0
210.0098355166847	0.8227947000414133	2	49	610103.0529	93.75	0.7030706000514328	1	0
210.8326302167261	0.8120570000028238	2	49	610103.9078	100	0.7351991999894381	1	0
211.64468721672893	0.8135858	2	49	610104.7552	100	0.7705874999519438	1	0
212.45827301673125	0.8161355	2	49	610105.6799	87.5	0.8817070999648422	2	0
213.2744085167069	0.8161672999849543	2	49	610106.4949	87.5	0.8805340999970213	2	0
214.09057581669185	0.8169374000281096	2	49	610107.4933	62.5	1.062791100004688	2	0
214.90751321671996	0.8157543999841437	2	49	610108.3678	56.25	1.1203450999455526	2	0
215.7232676167041	0.8151791000273079	2	49	610109.1993	56.25	1.1360336999641731	2	0
216.5384467167314	0.8202086000237614	2	49	610109.7169	93.75	0.8384487	2	0
217.35865531675518	0.8147262999555096	2	49	610110.4629	100	0.7642967000138015	1	0
218.17338161671069	0.8131335000507534	2	49	610111.2971	93.75	0.7837694999761879	2	0
218.98651511676144	0.8177077999571338	2	49	610112.081	100	0.7545434999046847	1	0
219.80422291671857	0.8212182000279427	2	49	610113.0782	81.25	0.9339629999594763	2	0
220.62544111674652	0.8081799999345094	1	0	0	0	0	0	0
221.43362111668102	0.8191048000007868	2	49	610114.4875	93.75	0.713876	1	0
222.2527259166818	0.8155902000144124	2	49	610115.2301	87.5	0.6374294999986887	1	0
223.06831611669622	0.8203103999840096	1	49	610115.9663	75	0.5580582	1	0
223.88862651668023	0.8165817999979481	1	49	610116.7131	62.5	0.48449280008208007	1	0
224.70520831667818	0.8173568000784144	2	49	610117.8081	100	0.7629622	1	0
225.5225651167566	0.8194174999371171	2	49	610118.6255	100	0.7629613	1	0
226.3419826166937	0.8146341000683606	2	49	610119.4583	100	0.7763953000539914	1	0
227.15661671676207	0.8073492998955771	2	49	610120.2995	93.75	0.8028707999037579	2	0
227.96396601665765	0.8165910000680014	2	49	610121.0732	100	0.7692911000922322	1	0
228.78055701672565	0.8224845000077039	2	49	610121.8742	100	0.7536415	1	0
229.60304151673336	0.8140447000041604	2	49	610122.5702	81.25	0.6272416	1	0
230.41708621673752	0.8157833999721333	2	49	610123.6098	87.5	0.8527140999212861	2	0
231.23286961670965	0.8273102999664843	2	49	610124.3562	100	0.7834015999687836	1	0
232.06017991667613	0.8175889999838546	2	49	610125.1623	100	0.7621347000822425	1	0
232.8777689	0.8194709999952465	2	49	610125.8724	87.5	0.6546474000206217	1	0
233.69723991665523	0.8122605	1	49	610126.5184	68.75	0.4811994000338018	1	0
234.5095004166942	0.8103086999617517	2	49	610127.5454	93.75	0.6958950000116602	1	0
235.31980911665596	0.8109039000701159	2	49	610128.4584	93.75	0.7986744000809267	2	0
236.13071301672608	0.8138603999977931	2	49	610129.2026	93.75	0.7319055999396369	1	0
236.94457341672387	0.8196247000014409	2	49	610129.9606	87.5	0.6760171999922022	1	0
237.7641981167253	0.8160258999560028	2	49	610130.7826	87.5	0.6784257999388501	1	0
238.5802240166813	0.8117110000457615	2	49	610131.7586	87.5	0.8384375	2	0
239.39193501672707	0.8218644999433309	2	49	610132.4715	100	0.7395917000249028	1	0
240.2137995166704	0.8077391000697389	2	49	610133.5198	75	0.9660626000259072	2	0
241.02153861674014	0.8158296999754384	1	0	0	0	0	0	0
241.83736831671558	0.8197980000404641	2	49	610135.1867	68.75	1.0093464000383392	2	0
242.65716631675605	0.8159602999221534	2	49	610135.7758	100	0.7786585999419913	1	0
243.4731266166782	0.8184804000193253	1	49	610136.3367	68.75	0.5235781000228599	1	0
244.29160701669753	0.8189573000418022	2	49	610137.1747	75	0.5431214000564069	1	0
245.11056431673933	0.8176710000261664	2	49	610138.1998	100	0.7493126000044867	1	0
245.9282353167655	0.8128311999607831	2	49	610139.0762	93.75	0.8080253999214619	2	0
246.74106651672628	0.8144976999610662	2	49	610139.9398	87.5	0.8587768999859691	2	0
247.55556421668734	0.8128160000778735	2	49	610140.712	93.75	0.8164443999994546	2	0
248.36838021676522	0.8168924	1	0	0	0	0	0	0
249.1852726166835	0.8150701000122353	2	49	610142.0919	75	0.5666212000651285	1	0
250.00034271669574	0.8157791000558063	2	49	610143.0934	100	0.7530538999708369	1	0
250.81612181675155	0.8177642	2	49	610143.8674	93.75	0.7112903000088409	1	0
251.63388601667248	0.8164114999817684	2	49	610144.9159	75	0.9420608000364155	2	0
252.45029751665425	0.8155549000948668	2	49	610145.5829	93.75	0.7926415000110865	2	0
253.2658524167491	0.8186731	2	49	610146.413	93.75	0.8071427999529988	2	0
254.08452551672235	0.8157247999915853	2	49	610147.2219	93.75	0.7974139000289142	2	0
254.90025031671394	0.823757	2	49	610148.0058	100	0.7655925999861211	1	0
255.7240073167486	0.8249234999530017	2	49	610148.8421	100	0.7781525999307632	1	0
256.5489308167016	0.8151336000300944	2	49	610149.8411	75	0.9521588999778032	2	0
257.3640644167317	0.8227469000266865	2	49	610150.4431	93.75	0.7390831999946386	1	0
258.1868113167584	0.8082227999111637	2	49	610151.1851	87.5	0.6583651999244466	1	0
258.99503411666956	0.8218949000583962	2	49	610152.1674	93.75	0.8323938000248745	2	0
259.81692901672795	0.8144434000132605	2	49	610152.9932	87.5	0.8362918000202626	2	0
260.6313724167412	0.8150520999915898	2	49	610153.7432	100	0.7718900999752805	1	0
261.4464245167328	0.8173881999682635	2	49	610154.5563	100	0.7699269999284297	1	0
262.26381271670107	0.8084987	2	49	610155.4432	87.5	0.8394643999636173	2	0
263.0723114	0.8150610999437049	2	49	610156.2865	87.5	0.8742096000351012	2	0
263.8873725166777	0.8156527	2	49	610157.0615	93.75	0.8341692000394687	2	0
264.7030252167024	0.8065431	2	49	610157.7274	93.75	0.6843855	1	0
265.5095683167456	0.8130124999443069	2	49	610158.4655	81.25	0.6160018999362364	1	0
266.3225808166899	0.8160519000375643	2	49	610159.6376	75	0.9750083000399172	2	0
267.13863271672744	0.8177643000381067	2	49	610160.2154	93.75	0.7367623000172898	1	0
267.95639701676555	0.8191445999545977	2	49	610161.0124	93.75	0.7159997998969629	1	0
268.77554161672015	0.8194837999762967	2	49	610161.7749	87.5	0.6594012000132352	1	0
269.59502541669644	0.8138569999719039	2	49	610162.9465	68.75	1.0114761999575421	2	0
270.40888241666835	0.8184596000937745	2	49	610163.5445	93.75	0.7956993000116199	2	0
271.2273420167621	0.8173897999804467	2	49	610164.4416	87.5	0.8742705999175087	2	0
272.04473181674257	0.8198432999197394	2	49	610165.14	100	0.7552863999735564	1	0
272.8645751166623	0.8142830000724643	2	49	610165.9557	100	0.7511154999956489	1	0
273.6788581167348	0.8105850999709219	2	49	610166.8437	93.75	0.8248767999466509	2	0
274.4894432167057	0.8159072	2	49	610167.6706	93.75	0.8412148000206798	2	0
275.3053504166892	0.8164929000195116	2	49	610168.4928	87.5	0.8474455999676138	2	0
276.1218433167087	0.8135028999531642	2	49	610169.2929	93.75	0.8310915000038221	2	0
276.93534621666186	0.8162540000630543	2	49	610170.0807	93.75	0.8054221000056714	2	0
277.7516002167249	0.8173797000199556	2	49	610170.8526	100	0.7610339999664575	1	0
278.56897991674487	0.8162705999566242	2	49	610171.5879	87.5	0.678932	1	0
279.3852505167015	0.8180532000260428	2	49	610172.4303	93.75	0.7050969999982044	1	0
280.20330371672753	0.8150129999266937	2	49	610173.4587	81.25	0.9154499999713153	2	0
281.0183167166542	0.8152198001043871	2	49	610174.188	93.75	0.8297433000989258	2	0
281.8335365167586	0.8134431999642402	2	49	610174.9989	93.75	0.8253746998962015	2	0
282.64697971672285	0.8162815000396222	2	49	610176.0079	68.75	1.0209998999489471	2	0
283.4632612167625	0.8202200999949127	2	49	610176.6539	87.5	0.8507207999937236	2	0
284.2834813167574	0.8178121999371797	2	49	610177.4482	93.75	0.8247323000105098	2	0
285.10129351669457	0.8162625000113621	2	49	610178.4379	68.75	0.9966490999795496	2	0
285.91755601670593	0.8129344000481069	2	49	610179.1018	87.5	0.8443254999583587	2	0
286.73049041675404	0.8133762999204919	2	49	610179.9411	87.5	0.8706405999837443	2	0
287.54386671667453	0.8170565000036731	2	49	610180.6061	93.75	0.7222645999863744	1	0
288.3609232166782	0.8152908000629395	2	49	610181.494	93.75	0.7931416999781504	2	0
289.17621401674114	0.8223773000063375	2	49	610182.492	75	0.9758642999222502	2	0
289.9985913167475	0.8116049999371171	2	49	610183.1103	100	0.7717689999844879	1	0
290.8101963166846	0.817181	2	49	610183.9564	93.75	0.8062587999738753	2	0
291.62737731670495	0.8124595	2	49	610184.8121	87.5	0.8447427999926731	2	0
292.4398368167458	0.8177884999895468	2	49	610185.4752	93.75	0.6954215000150725	1	0
293.25762531673536	0.8150337999686599	2	49	610186.385	93.75	0.7874535	2	0
294.0726591	0.8183339999523014	2	49	610187.0876	87.5	0.6749800000106916	1	0
294.8909931166563	0.8136444000992924	2	49	610187.9911	100	0.7601700000232086	1	0
295.7046375167556	0.8203557999804616	2	49	610188.8483	93.75	0.8036681999219581	2	0
296.5249933167361	0.8136283	2	49	610189.6862	93.75	0.8212335000280291	2	0
297.33862161671277	0.8207369999727234	2	49	610190.4073	93.75	0.7287128999596462	1	0
298.1593586166855	0.8159658000804484	2	49	610191.2103	93.75	0.7109581000404432	1	0
298.97532441676594	0.8162469998933375	2	49	610191.9925	87.5	0.6772079999791458	1	0
299.7915714166593	0.8141734000528231	2	49	610192.7924	87.5	0.6608326000859961	1	0
300.6057448167121	0.8128726000431925	2	49	610193.6325	93.75	0.6868337000487372	1	0
301.4186174167553	0.8179564999882132	2	49	610194.4805	93.75	0.7218916999408975	1	0
302.2365739167435	0.8167461999692023	2	49	610195.2885	93.75	0.7119354999158531	1	0
303.0533201167127	0.8165897999424487	2	49	610195.9843	81.25	0.5910504000494257	1	0
303.86990991665516	0.8120035000611097	2	49	610196.9115	93.75	0.7016016	1	0
304.68191341671627	0.8175676999380812	2	49	610197.7355	93.75	0.7135967999929562	1	0
305.49948111665435	0.8196362000890076	2	49	610198.6015	100	0.7620881000766531	1	0
306.31911731674336	0.8110446999780834	2	49	610199.3924	100	0.7333416999317706	1	0
307.13016201672144	0.8174411000218242	2	49	610200.2575	100	0.7874072999693453	1	0
307.94760311674327	0.8151945999125019	2	49	610201.1635	87.5	0.8759185000089929	2	0
308.76279771665577	0.8242975000757724	2	49	610201.8787	100	0.7759144000010565	1	0
309.58709521673154	0.8158182000042871	2	49	610202.6179	93.75	0.6908133999677375	1	0
310.4029134167358	0.8200320999603719	2	49	610203.3956	87.5	0.6527300999732688	1	0
311.2229455166962	0.8164541999576613	2	49	610204.2947	93.75	0.7317862	1	0
312.03939971665386	0.8089816001011059	2	49	610205.241	87.5	0.8616119000362232	2	0
312.84838131675497	0.8257981999777257	1	49	610205.9159	93.75	0.7275429998990148	1	0
313.6741795167327	0.8201161000179127	2	49	610206.9418	81.25	0.9276219999883324	2	0
314.4942956167506	0.8135884999064729	1	49	610207.5698	100	0.7355677000014111	1	0
315.3078841166571	0.8084009001031518	2	49	610208.5317	81.25	0.8838877000380307	2	0
316.11628501676023	0.8162886999780312	2	49	610209.293	93.75	0.8367441999725997	2	0
316.93257371673826	0.8111604999285191	1	0	0	0	0	0	0
317.7437342166668	0.8132265000604093	2	49	610210.8121	93.75	0.7283770000794902	1	0
318.5569607167272	0.8156751999631524	2	49	610211.5859	93.75	0.6889378000050783	1	0
319.37263591669034	0.8187179999658838	2	49	610212.57	87.5	0.8574087000451982	2	0
320.1913539166562	0.8137852000072598	2	49	610213.4	87.5	0.8686813	2	0
321.0051391166635	0.8185223999898881	2	49	610214.2642	81.25	0.9190632000099868	2	0
321.8236615166534	0.8147898	2	49	610215.0842	81.25	0.9205710000824183	2	0
322.63845131674316	0.8149506999179721	2	49	610215.9132	81.25	0.9347475999966264	2	0
323.45340201666113	0.8221660000272095	2	49	610216.6645	87.5	0.8711730000795797	2	0
324.27556801668834	0.8149484000168741	2	49	610217.368	100	0.7525102000217885	1	0
325.0905164167052	0.8141574000474066	2	49	610218.1122	87.5	0.6817084000213072	1	0
325.9046738167526	0.8160257999552414	2	49	610219.1305	87.5	0.8858817999716848	2	0
326.72069961670786	0.8135443000355735	2	49	610219.827	100	0.7662868000334129	1	0
327.53424391674343	0.8158833	2	49	610220.6121	100	0.7378474000142887	1	0
328.35012721666135	0.8179295000154525	2	49	610221.5976	81.25	0.9075292000779882	2	0
329.1680567166768	0.8160940000088885	1	49	610222.3251	93.75	0.8170869000023231	2	0
329.9841507166857	0.8165701000252739	2	49	610223.0728	100	0.7486670999787748	1	0
330.80072081671096	0.8161238000029698	2	49	610223.8494	93.75	0.7086671999422833	1	0
331.61684461671393	0.8169503000099212	2	49	610224.8553	81.25	0.8985322000226006	2	0
332.43379491672385	0.8135204999707639	2	49	610225.8006	68.75	1.026818300015293	2	0
333.2473154166946	0.8239160999655724	1	49	610226.5674	75	0.9800790000008419	2	0
334.0712315166602	0.8148231999948621	2	0	0	0	0	0	0
334.88605471665505	0.8185288000386208	2	49	610227.8293	81.25	0.6032429001061246	1	0
335.7045835166937	0.8118631000397727	2	49	610229.0104	75	0.9658977000508457	2	0
336.51644661673345	0.8106396999210119	2	49	610229.7105	87.5	0.8540794999571517	2	0
337.32708631665446	0.8176243000198156	2	49	610230.5696	81.25	0.9025340001098812	2	0
338.1447106166743	0.8166854000883177	2	49	610231.2795	93.75	0.7948034000582993	2	0
338.9613960167626	0.8223289	2	49	610232.1645	87.5	0.8631105999229476	2	0
339.78372491674963	0.8156957000028342	2	49	610233.0224	81.25	0.8987226999597624	2	0
340.59942061675247	0.8173646999057382	2	49	610233.7315	93.75	0.7920805999310687	2	0
341.4167853166582	0.8176248000236228	2	49	610234.5746	93.75	0.8178699	2	0
342.23441011668183	0.8174953000852838	2	49	610235.4518	87.5	0.8773865000111982	2	0
343.0519054167671	0.8191623999737203	2	49	610236.1941	93.75	0.8021958998870105	2	0
343.87106781674083	0.8116580999922007	2	49	610236.9206	93.75	0.7095740999793634	1	0
344.68272591673303	0.8083937999326736	1	49	610237.7478	93.75	0.7251041999552399	1	0
345.4911197166657	0.8132687	2	49	610239.1747	31.25	1.3436361000640318	2	0
346.3043884166982	0.8256062000291422	1	0	0	0	0	0	0
347.12999461672734	0.8148418000200763	2	49	610240.3067	87.5	0.8367228999268264	2	0
347.9448364167474	0.8131893000099808	1	0	0	0	0	0	0
348.7580257167574	0.8109188999515027	2	49	610242.0409	75	0.9428766999626532	2	0
349.5689446167089	0.8198166999500245	2	49	610242.681	100	0.7720600999891758	1	0
350.38876131665893	0.8213425000431016	1	49	610243.3845	87.5	0.6558089000172913	1	0
351.21010381670203	0.8134170999983326	2	0	0	0	0	0	0
352.02352091670036	0.8161529999924824	1	49	610245.1449	100	0.7813715999945998	1	0
352.83967391669285	0.8129228000761941	2	0	0	0	0	0	0
353.65259671676904	0.8143802999984473	2	49	610246.7188	93.75	0.7262370999669656	1	0
354.4669770167675	0.8156555999303237	2	49	610247.7481	75	0.9411546998890117	2	0
355.2826326166978	0.8199683000566438	2	49	610248.4013	100	0.7786736000562087	1	0
356.10260091675445	0.8132460999768227	2	49	610249.121	87.5	0.6784166999859735	1	0
356.9158470167313	0.8173237	2	49	610250.1772	81.25	0.9214232999365777	2	0
357.73317071667407	0.8230159999802709	2	49	610250.9731	81.25	0.8999158000806347	2	0
358.55618671665434	0.8133333	2	49	610251.8302	75	0.9340519000543281	2	0
359.36952001671307	0.8127391999587417	2	49	610252.5624	87.5	0.8528806	2	0
360.1822592166718	0.8191845000255853	2	49	610253.6288	56.25	1.106547600007616	2	0
361.0014437166974	0.8185106000164524	2	49	610254.2546	81.25	0.9132036999799311	2	0
361.81995431671385	0.8126979999942705	2	49	610254.9783	93.75	0.8183752000331879	2	0
362.6326523167081	0.8158153	2	49	610255.6976	93.75	0.7250004999805242	1	0
363.4484676166903	0.8130077000241727	2	49	610256.4808	93.75	0.6923540000570938	1	0
364.2614753167145	0.8155473000369966	2	49	610257.2683	87.5	0.6668317000148818	1	0
365.0770226167515	0.8159025999484584	1	49	610258.2662	87.5	0.8492096000118181	2	0
365.89292521669995	0.8179053000640124	2	49	610258.9133	87.5	0.6803923000115901	1	0
366.71083051676396	0.8141813999973238	2	49	610259.7268	87.5	0.6759607999119908	1	0
367.5250119167613	0.8182112999493256	2	49	610260.5513	87.5	0.6863027999643236	1	0
368.3432232167106	0.8175789000233635	2	49	610261.4494	100	0.7662019	1	0
369.1608021	0.8139811999863014	2	49	610262.1274	81.25	0.6266336999833584	1	0
369.9747833167203	0.8206122999545187	2	49	610262.8685	75	0.5537669999757782	1	0
370.7953956166748	0.8183884000172839	2	49	610263.7265	81.25	0.5911295000696555	1	0
371.6137840166921	0.8153834000695497	2	49	610264.6665	93.75	0.7127142	1	0
372.42916741676163	0.8165972999995574	1	0	0	0	0	0	0
373.2457647167612	0.8102392998989671	2	49	610266.259	87.5	0.6732605999568477	1	0
374.05600401666015	0.8135103000095114	2	49	610267.0925	93.75	0.6965587000595406	1	0
374.86951431666967	0.8173720000777394	2	49	610267.9786	100	0.7690959	1	0
375.6868863167474	0.8196299	2	49	610268.8295	93.75	0.8026595999253914	2	0
376.5065162	0.8127995000686496	2	49	610269.5827	100	0.7361922	1	0
377.3193157167407	0.8185483999550343	2	49	610270.4917	93.75	0.8324051	2	0
378.1378641166957	0.8132237000390887	2	49	610271.1866	93.75	0.7087995000183582	1	0
378.9510878167348	0.8165458999574184	2	49	610272.2807	68.75	0.9896692000329494	2	0
379.7676337166922	0.8184735999675468	2	49	610272.8936	100	0.7860464	1	0
380.58610731665976	0.8187707000179216	2	49	610273.7246	93.75	0.7985687	2	0
381.4048780166777	0.8162743999855593	2	49	610274.4248	87.5	0.6799462	1	0
382.22115241666324	0.8171875000698492	2	49	610275.2901	93.75	0.7289708000607789	1	0
383.0383399167331	0.8127085999585688	2	49	610275.9088	68.75	0.5304609999293461	1	0
383.85104851669166	0.812987	2	49	610276.7328	75	0.5417431000387296	1	0
384.66403551667463	0.8189605000661686	2	49	610277.5948	81.25	0.5908187000313774	1	0
385.4829960167408	0.8149634000146762	2	49	610278.4128	81.25	0.5898586999392137	1	0
386.2979594167555	0.8131363999564201	2	49	610279.4722	87.5	0.8342404	2	0
387.1110958167119	0.8222912000492215	2	49	610280.1259	87.5	0.6748218	1	0
387.9333870167611	0.8114898	2	49	610280.8923	81.25	0.6189319998957217	1	0
388.74487681675237	0.8176641999743879	2	49	610281.821	93.75	0.7361211999086663	1	0
389.56254101672675	0.8211257	2	49	610282.6207	93.75	0.7182234999490902	1	0
390.38366671674885	0.8178261999273673	2	49	610283.3812	87.5	0.6576043999521062	1	0
391.2014929166762	0.8170894000213593	2	49	610284.2701	93.75	0.7286877000005916	1	0
392.0185823166976	0.8185608	2	49	610285.2071	87.5	0.8485209	2	0
392.83714311674703	0.8122850999934599	2	49	610285.9841	93.75	0.8070216999622062	2	0
393.6494282167405	0.8120214999653399	2	49	610286.7812	93.75	0.7917762999422848	2	0
394.46144971670583	0.8120191999478266	2	49	610287.6822	87.5	0.8807519000256434	2	0
395.27346891665366	0.8208556000608951	2	49	610288.4274	93.75	0.8139964001020417	2	0
396.09432451671455	0.8141462999628857	2	49	610289.3022	87.5	0.8678759000031278	2	0
396.90847081667744	0.8175370000535622	2	49	610290.0863	93.75	0.8378779999911785	2	0
397.7260078	0.8149285	1	0	0	0	0	0	0
398.54093631671276	0.8135956999612972	1	0	0	0	0	0	0
399.35453201667406	0.8234238000586629	2	49	610292.4922	93.75	0.7976584000280127	2	0
400.1779558167327	0.8106256999308243	2	49	610293.2086	93.75	0.6907066999701783	1	0
400.98858151666354	0.8259161000605673	2	49	610294.1303	93.75	0.8017295	2	0
401.8144976167241	0.8161063999868929	2	49	610295.0854	81.25	0.9309407999971882	2	0
402.630604	0.8115486999740824	2	49	610295.9415	75	0.9709263000404462	2	0
403.4421527166851	0.8230612999759614	2	49	610296.2304	62.5	0.4482745999703184	1	0
404.26521401666105	0.8094233000883833	1	49	610297.2115	81.25	0.6063619001070037	1	0
405.07463731674943	0.8172526999842376	2	49	610297.9775	75	0.5628686000127345	1	0
405.89189001673367	0.8128269999288023	2	49	610298.7356	68.75	0.5037144	1	0
406.70471701666247	0.8197859	1	49	610299.7065	87.5	0.6617803000845015	1	0
407.5245029167272	0.8169886999530718	2	49	610300.5935	93.75	0.7290440000360832	1	0
408.3414916166803	0.8229914	2	49	610301.4666	100	0.7851631999947131	1	0
409.1644830167061	0.8326845000265166	2	49	610302.3095	100	0.8050611	1	0
409.9971675167326	0.8350843000225723	2	49	610303.3036	75	0.9664649999467656	2	0
410.83225181675516	0.8354565999470651	2	49	610304.1246	81.25	0.9523519999347627	2	0
411.6677084167022	0.8345975000411272	2	49	610304.9685	81.25	0.9608595999889076	2	0
412.50230591674335	0.8336052	2	49	610305.5356	87.5	0.6932988999178633	1	0
413.3359111166792	0.8345745999831706	2	49	610306.3506	87.5	0.6747723000589758	1	0
414.17048571666237	0.8335415000328794	2	49	610307.0707	75	0.5602264000335708	1	0
415.00402721669525	0.8344502999680117	2	49	610307.9356	75	0.5916097000008449	1	0
415.83847751666326	0.8343606000998989	2	49	610309.0376	93.75	0.8591774000087753	2	0
416.67283811676316	0.8339169999817386	2	49	610309.8988	87.5	0.8859957999084145	2	0
417.5067551167449	0.8342146999202669	2	49	610310.5988	93.75	0.7520349000114948	1	0
418.34096981666517	0.8345363000407815	2	49	610311.4149	93.75	0.7339697000570595	1	0
419.17550611670595	0.8132754999678582	2	49	610312.1348	81.25	0.6193054000614211	1	0
419.9887816166738	0.8094651000574231	2	49	610312.954	81.25	0.6252218000590801	1	0
420.7982467167312	0.8125198000343516	2	49	610313.7909	87.5	0.6527066000271589	1	0
421.6107665167656	0.8104510999983177	1	49	610314.6362	93.75	0.68551	1	0
422.4212176167639	0.8089900999329984	2	49	610315.211	62.5	0.4497879999689758	1	0
423.2302077166969	0.8185236999997869	2	49	610316.32	100	0.7498104000696912	1	0
424.0487314166967	0.8099116999655962	2	49	610317.1641	100	0.7754018000559881	1	0
424.8586431166623	0.8186651000287384	2	49	610318.0389	93.75	0.8403358000796288	2	0
425.6773082	0.8162211000453681	2	49	610318.7412	93.75	0.723914	1	0
426.4935293167364	0.8210529999341816	2	49	610319.5411	93.75	0.7076370000140741	1	0
427.31458231667057	0.8168790000490844	1	49	610320.3215	87.5	0.6669325000839308	1	0
428.13146131671965	0.8128086000215262	2	49	610320.9738	68.75	0.5023283	1	0
428.9442699167412	0.8134718999499455	2	49	610321.8377	75	0.5534466999815777	1	0
429.7577418166911	0.8145926999859512	2	49	610322.5674	62.5	0.4696432000491768	1	0
430.5723345166771	0.8180327999871224	2	49	610323.7791	87.5	0.8668457000749186	2	0
431.3903673166642	0.8165462000761181	2	49	610324.5302	93.75	0.7998224	2	0
432.2069135167403	0.8230902999639511	2	49	610325.3821	93.75	0.8352477	2	0
433.03000381670427	0.8135301000438631	1	49	610326.0352	87.5	0.6651915999827906	1	0
433.84353391674813	0.8125831999350339	2	0	0	0	0	0	0
434.65611711668316	0.8183320000534877	2	49	610327.8093	93.75	0.8132504	2	0
435.47444911673665	0.8170974999666214	2	49	610328.6608	87.5	0.8463966000126675	2	0
436.2915466167033	0.8138807	2	49	610329.4983	87.5	0.8667901000007987	2	0
437.1054273167392	0.8206254999386147	2	49	610330.1103	87.5	0.6648807999445125	1	0
437.92605281667784	0.8170516000827774	2	49	610330.9514	87.5	0.6854051999980584	1	0
438.7431044167606	0.8206384999211878	2	49	610331.8184	93.75	0.7352853	1	0
439.5637429166818	0.8167494999943301	2	49	610332.6004	93.75	0.6966563999885693	1	0
440.38049241667613	0.8089695000089705	2	49	610333.8155	56.25	1.0950532000279054	2	0
441.1894619166851	0.8129447000101209	2	49	610334.2846	100	0.7551658999873325	1	0
442.0024066166952	0.8136265999637544	2	49	610335.1507	93.75	0.8083587000146508	2	0
442.8160332	0.8151171000208706	1	0	0	0	0	0	0
443.63115031667985	0.8197768999962136	2	49	610336.5485	75	0.5773665000451729	1	0
444.45092721667606	0.8126398000167683	2	49	610337.3046	68.75	0.5136998000089079	1	0
445.26356701669283	0.8151515000499785	2	49	610338.3267	93.75	0.7231538000050932	1	0
446.0787185167428	0.8218701999867335	2	49	610339.2028	100	0.7840679999208078	1	0
446.90058871672954	0.8145521000260487	2	49	610340.1462	81.25	0.9056751999305561	2	0
447.7151408167556	0.8140281999949366	2	49	610340.8467	93.75	0.7915606999304146	2	0
448.52916901675053	0.8165516	2	49	610341.7066	87.5	0.8375098999822512	2	0
449.34572061675135	0.8254633999895304	1	49	610342.5308	93.75	0.8451354999560863	2	0
450.1711840167409	0.8161493999650702	2	49	610343.0007	68.75	0.4895908000180498	1	0
450.98733341670595	0.8204808000009507	2	49	610344.1073	100	0.7799612999660894	1	0
451.8078142167069	0.8135331999510527	2	49	610344.6851	75	0.5373685	1	0
452.62134741665795	0.8127898001112044	1	0	0	0	0	0	0
453.43413721676916	0.8172331999521703	2	49	610346.55	100	0.7758546998957172	1	0
454.25137041672133	0.8145829000277445	2	49	610347.3688	100	0.7774994999635965	1	0
455.0659533167491	0.8186061999294907	2	49	610348.2309	93.75	0.8249545999569818	2	0
455.88455951667856	0.8112336000194773	2	49	610349.0599	93.75	0.8353442000225186	2	0
456.69579311669804	0.8100303000537679	2	49	610349.78	100	0.7442253000335768	1	0
457.5058234167518	0.8191190999932587	2	49	610350.624	100	0.7782322999555618	1	0
458.32494251674507	0.8137830999912694	2	49	610351.3813	93.75	0.7164094999898225	1	0
459.13872561673634	0.8180484999902546	2	49	610352.172	93.75	0.6933446999173611	1	0
459.9567741167266	0.8176694000139832	2	49	610352.9559	87.5	0.6591568000148982	1	0
460.7744435167406	0.8138801	2	49	610353.8551	100	0.7406615000218153	1	0
461.58832361665554	0.8134420000715181	2	49	610354.8984	75	0.9700637001078576	2	0
462.40176561672706	0.8196520999772474	2	49	610355.4592	93.75	0.7174950999906287	1	0
463.2214177167043	0.8141380000161007	2	49	610356.3642	93.75	0.8028000000631437	2	0
464.0355557167204	0.8167745999526232	2	49	610357.1061	93.75	0.7305888	1	0
464.85233031667303	0.8138097000773996	2	49	610357.8677	87.5	0.675368	1	0
465.66614001675043	0.8194795999443159	2	49	610358.8092	93.75	0.8031120999949053	2	0
466.48561961669475	0.8143557000439614	2	49	610359.6276	93.75	0.8020441000116989	2	0
467.2999753167387	0.8177184999221936	1	0	0	0	0	0	0
468.1176938166609	0.8183257000055164	2	49	610361.1685	93.75	0.7108379000565037	1	0
468.9360195166664	0.8173526000464335	2	49	610361.9902	93.75	0.7142415000125766	1	0
469.75337211671285	0.8102704000193626	2	49	610362.7423	87.5	0.6489820999559015	1	0
470.5636425167322	0.8237825999967754	1	49	610363.6553	100	0.7516938999760896	1	0
471.3874251	0.8139364	1	49	610364.4633	100	0.7358612000243738	1	0
472.2013615167234	0.8164568	2	0	0	0	0	0	0
473.01781831670087	0.8287526000058278	2	49	610365.8053	62.5	0.44754069996997714	1	0
473.8465709167067	0.8190521	2	49	610366.7764	81.25	0.5898315999656916	1	0
474.66562301665545	0.8087960000848398	2	49	610367.3124	43.75	0.3068318000296131	1	0
475.4744190167403	0.8143026999896392	2	49	610368.2106	56.25	0.39617429999634624	1	0
476.2887217167299	0.812701	2	49	610369.182	75	0.5533364999573678	1	0
477.10142271674704	0.8080318999709561	1	0	0	0	0	0	0
477.9094546	0.8198419000254944	2	49	610371.0925	93.75	0.8431259000208229	2	0
478.7292965167435	0.8125912999967113	1	0	0	0	0	0	0
479.5418878167402	0.8179349999409169	2	49	610372.6632	100	0.7813123000087216	1	0
480.3598228166811	0.8199647000292316	2	49	610373.5529	87.5	0.8530667000450194	2	0
481.17978751671035	0.8257062999764457	2	49	610374.3267	93.75	0.8069222000194713	2	0
482.0054938166868	0.8135501000797376	2	49	610375.2957	75	0.9502583000576124	2	0
482.81904391676653	0.8073854999383911	2	49	610376.1017	75	0.9427306998986751	2	0
483.6264294167049	0.8172506999690086	2	49	610376.7978	93.75	0.8313729000510648	2	0
484.44368011667393	0.812817	2	49	610377.2968	68.75	0.5131615999853238	1	0
485.2564971167594	0.8145592999644578	1	49	610378.2533	87.5	0.6568225999362767	1	0
486.0710564167239	0.8189843000145629	2	49	610378.7917	56.25	0.3807181000011042	1	0
486.89004071673844	0.8503710000077263	2	49	610380.0929	93.75	0.8628605999983847	2	0
487.74041171674617	0.8082547999219969	1	49	610380.7995	93.75	0.7191596999764442	1	0
488.54866651666816	0.8104758000699803	2	49	610381.2404	50	0.35172420006711036	1	0
489.35914231673814	0.8096433	2	49	610382.3411	87.5	0.6420326000079513	1	0
490.1687856167555	0.8093343	2	49	610383.3689	87.5	0.8601104	2	0
490.97811991674826	0.8124864000128582	2	49	610384.086	100	0.7679204000160098	1	0
491.7906063167611	0.8114645999157801	2	49	610384.857	93.75	0.7263871999457479	1	0
492.6020709166769	0.8152797999791801	2	49	610385.742	93.75	0.7999651	2	0
493.4173507166561	0.8154289000667632	2	49	610386.748	75	0.9906526000704616	2	0
494.23277961672284	0.8211089000105858	2	49	610387.577	68.75	1.0042645999928936	2	0
495.0538885167334	0.8176186	2	49	610388.4243	68.75	1.0304273000219837	2	0
495.87150711670984	0.8195265999529511	2	49	610388.9451	93.75	0.7335809000069275	1	0
496.6910337166628	0.8172259000129998	2	49	610389.6915	87.5	0.6605033000232652	1	0
497.5082596166758	0.8077955000335351	2	49	610390.5212	87.5	0.6729657000396401	1	0
498.3160551167093	0.8189461999572814	2	49	610391.3373	87.5	0.6812869999557734	1	0
499.1350013166666	0.8109404	2	49	610392.0991	81.25	0.6241085000801831	1	0
499.9459417166654	0.8180706000421196	2	49	610393.0303	100	0.744434	1	0
500.7640123167075	0.8131362999556586	2	49	610393.9059	93.75	0.8018845999613404	2	0
501.5771486166632	0.8193705000448972	1	49	610394.7715	87.5	0.8543645000318065	2	0
502.3965191167081	0.8190977999474853	2	49	610395.1101	50	0.3736452	1	0
503.21561691665556	0.8137933000689372	2	49	610396.0935	75	0.5378920000512153	1	0
504.0294102167245	0.8139192999806255	2	49	610397.0653	93.75	0.6959028999553993	1	0
504.8433295167051	0.8171718999510631	2	49	610397.8404	87.5	0.6570713	1	0
505.6605014166562	0.8182818000204861	2	49	610398.6123	81.25	0.6118502001045272	1	0
506.4787832166767	0.8167995000258088	2	49	610399.4792	87.5	0.6604395000031218	1	0
507.2955827167025	0.8135139000369236	2	49	610400.2586	81.25	0.6230545999715105	1	0
508.1090966167394	0.8145154999801889	2	49	610401.2304	100	0.7813203999539837	1	0
508.9236121167196	0.8159538999898359	2	49	610401.972	93.75	0.7084453999996185	1	0
509.73956601670943	n/a	0	49	610402.8385	100	0.7589707999723032	1	0