onset	duration	cue	constant1	timestamp	stimulus_coherence	response_time	response	constant2
20.698973956605187	0.7994899999903282	1	0	0	0	0	0	0
21.498463956595515	0.7991343000030611	2	49	89744.88631	56.25	1.1176107000064803	2	0
22.297598256598576	0.7987480000010692	2	49	89745.5573	68.75	0.9894669000059366	2	0
23.096346256599645	0.7991398	2	49	89746.25451	81.25	0.8879313999932492	2	0
23.89548605660093	0.7986428000003798	1	0	0	0	0	0	0
24.69412885660131	0.7987246	1	0	0	0	0	0	0
25.492853456598823	0.7990806000016164	2	49	89748.68758	75	0.9244926999963354	2	0
26.29193405660044	0.7983900999970501	2	49	89749.50785	75	0.9456776000006357	2	0
27.09032415659749	0.7982072000013432	2	49	89750.39558	62.5	1.0350239999970654	2	0
27.888531356598833	0.8009327000036137	2	49	89751.0396	81.25	0.8808293000038248	2	0
28.689464056602446	0.7999487999913981	2	49	89752.04881	56.25	1.0891129999945406	2	0
29.489412856593844	0.7981927000073483	2	49	89752.78349	62.5	1.0238379000074929	2	0
30.287605556601193	0.8026318000047468	2	49	89753.50273	75	0.9448896	2	0
31.09023735660594	0.7978727000008803	1	49	89754.24839	81.25	0.8879148999985773	2	0
31.88811005660682	0.7988193999917712	2	49	89755.00391	87.5	0.8455613999976777	2	0
32.68692945659859	0.7998153000080492	2	49	89755.88643	75	0.9292602	2	0
33.48674475660664	0.8004456999915419	2	49	89756.69404	75	0.9370555	2	0
34.28719045659818	0.7974861	2	49	89757.4536	81.25	0.8961773000046378	2	0
35.084676556594786	0.7974033000064082	2	49	89758.30166	75	0.9467466000060085	2	0
35.882079856601194	0.7989972	2	49	89759.04223	81.25	0.8899138999986462	2	0
36.681077056593494	0.8009295000083512	2	49	89759.9507	68.75	0.9993880000110948	2	0
37.482006556601846	0.7996357999945758	2	49	89760.6733	81.25	0.9210585	2	0
38.28164235659642	0.7990921000018716	2	49	89761.73161	43.75	1.1797367999970447	2	0
39.08073445659829	0.7997554000030505	2	49	89762.11212	100	0.7611545999970986	1	0
39.88048985660134	0.7997295999957714	2	49	89762.93269	93.75	0.7819669000018621	2	0
40.680219456597115	0.7994317999982741	2	49	89763.95404	68.75	1.0035848999978043	2	0
41.47965125659539	0.7978075999999419	2	49	89764.83328	56.25	1.083389300009003	2	0
42.27745885659533	0.8004648000060115	2	49	89765.45501	81.25	0.9073122	2	0
43.07792365660134	0.7993792999914149	2	49	89766.36871	68.75	1.0205482000019401	2	0
43.87730295659276	0.7975974	1	0	0	0	0	0	0
44.67490035659284	0.7991934000019683	1	0	0	0	0	0	0
45.47409375659481	0.7984763999993447	2	49	89768.64798	81.25	0.9036550000018906	2	0
46.272570156594156	0.7998196000116877	2	49	89769.43987	81.25	0.8970675000018673	2	0
47.072389756605844	0.8002634999866132	2	49	89770.2511	81.25	0.9084789999906207	2	0
47.87265325659246	0.7998985000012908	2	49	89771.13099	68.75	0.9881003000045894	2	0
48.67255175659375	0.8005992000107653	2	49	89771.84717	81.25	0.9043870000023162	2	0
49.47315095660451	0.8001054999913322	1	49	89772.60912	87.5	0.8657375999900978	2	0
50.273256456595846	0.7991279999987455	2	49	89773.49604	75	0.9525462000019616	2	0
51.07238445659459	0.8005269999994198	2	49	89774.17402	87.5	0.8314045000006445	2	0
51.87291145659401	0.7979824	2	49	89774.975	87.5	0.8318489	2	0
52.67089385660074	0.7954473999998299	2	49	89775.71404	93.75	0.7729077999974834	2	0
53.46634125660057	0.7984957000007853	2	49	89776.66724	75	0.9306633999949554	2	0
54.26483695660136	0.7993390000046929	2	49	89777.49023	75	0.9551624000014272	2	0
55.06417595660605	0.7962387999868952	2	49	89778.16029	87.5	0.8258776000002399	2	0
55.860414756592945	0.7946217999997316	2	49	89779.08234	75	0.9516862000018591	2	0
56.65503655659268	0.7947237	2	49	89779.8152	81.25	0.8899313000001712	2	0
57.449760256597074	0.7970081999956165	2	49	89780.70328	68.75	0.9832844000047771	2	0
58.24676845659269	0.797792	2	49	89781.42037	81.25	0.9033706	2	0
59.04456045660481	0.7990024999890011	2	49	89782.21844	81.25	0.9036468999984208	2	0
59.843562956593814	0.7987443000019994	2	49	89782.89359	93.75	0.7797910000081174	2	0
60.642307256595814	0.7982832999987295	2	49	89783.90893	68.75	0.9963847000035457	2	0
61.44059055659454	0.7998994000081439	2	49	89784.60539	81.25	0.8945601000013994	2	0
62.24048995660269	0.7981503	2	49	89785.59765	56.25	1.0869243999914033	2	0
63.03864025659277	0.7986378000059631	2	49	89786.45529	50	1.1464190000115195	2	0
63.837278056598734	0.7979940999939572	2	49	89786.88764	93.75	0.7801251000055345	2	0
64.63527215659269	0.7993183	1	49	89787.75448	87.5	0.8489693000010448	2	0
65.43459045659984	0.7998383999947691	2	49	89788.51082	93.75	0.8059917999926256	2	0
66.23442886	0.7974346000119112	2	49	89789.45363	75	0.9489695000083884	2	0
67.03186345660652	0.7998555999947712	2	49	89790.20114	81.25	0.8990391999977874	2	0
67.83171905660129	0.8002817999949912	2	49	89790.83477	100	0.7328116999997292	1	0
68.63200085659628	0.7994360000011511	2	49	89791.87758	68.75	0.9753453000012087	2	0
69.43143685659743	0.7979654000082519	2	49	89792.62167	75	0.9199933000054443	2	0
70.22940225660568	0.7997749999922235	2	49	89793.38093	81.25	0.8812971999868751	2	0
71.02917726	0.7998727000085637	2	49	89794.1187	93.75	0.8192922000016551	2	0
71.82904995660647	0.7990752	2	49	89794.97574	81.25	0.8764573999942513	2	0
72.62812515659607	0.7984539000026416	2	49	89795.86295	75	0.9645893999986583	2	0
73.42657905659871	0.8010876000043936	1	0	0	0	0	0	0
74.22766666	0.8004347999958554	2	49	89797.18591	93.75	0.6880040999967605	1	0
75.02810145659896	0.7987438999989536	1	49	89798.05393	100	0.7555980000033742	1	0
75.82684535659791	0.7983964000013657	1	0	0	0	0	0	0
76.62524175659928	0.8009586999978637	2	49	89799.73241	87.5	0.8369279000035021	2	0
77.42620045659714	0.7996810000040568	2	49	89800.57284	81.25	0.8763991000014357	2	0
78.22588146	0.7981180999922799	2	49	89801.42621	75	0.9300921999965794	2	0
79.02399955659348	0.7994829000090249	2	49	89802.21082	81.25	0.9165854000020772	2	0
79.82348246	0.7991867999953683	2	49	89802.99891	81.25	0.9051918000041042	2	0
80.62266925659787	0.7988643999997294	1	0	0	0	0	0	0
81.42153366	0.7986627000063891	2	49	89804.62385	75	0.9320770000049379	2	0
82.22019635660399	0.7961557	2	49	89805.57593	56.25	1.0854996999987634	2	0
83.01635205659841	0.7991366000060225	2	49	89806.29812	68.75	1.0115317000017967	2	0
83.81548865660443	0.7992973999935202	1	0	0	0	0	0	0
84.61478605659795	0.7973194000078365	2	49	89807.8224	75	0.9373745000048075	2	0
85.41210545660579	0.8012164999963716	2	49	89808.70408	68.75	1.0217357999936212	2	0
86.21332195660216	0.8016135999932885	1	0	0	0	0	0	0
87.01493555659545	0.7984039000002667	2	49	89810.25725	68.75	0.9720746000093641	2	0
87.81333945659571	0.7990526000066893	2	0	0	0	0	0	0
88.61239206	0.7987286999996286	2	49	89811.87041	68.75	0.9877792999905068	2	0
89.41112075660203	0.7976152000046568	2	49	89812.53567	87.5	0.8543117999943206	2	0
90.20873595660669	0.8001328	1	0	0	0	0	0	0
91.00886875660217	0.7996787000010954	2	49	89813.97125	93.75	0.6921475999988616	1	0
91.80854745660326	0.7990642999939155	2	49	89814.94798	87.5	0.8691964000026928	2	0
92.60761175659718	0.7965993	2	49	89815.77427	81.25	0.8964275000034831	2	0
93.40421105659334	0.7974870000034571	2	49	89816.60676	75	0.9323156000027666	2	0
94.20169806	0.7994697999965865	2	49	89817.65685	43.75	1.1849152000067988	2	0
95.00116785659338	0.7972173000016483	2	49	89818.46675	43.75	1.1953419000055874	2	0
95.79838515659503	0.7982391999976244	2	49	89819.15939	56.25	1.0907725	2	0
96.59662435659266	0.7988681000133511	2	49	89819.82748	75	0.9606230000063078	2	0
97.39549245660601	0.7992660999880172	2	49	89820.75419	56.25	1.0884667999926023	2	0
98.19475855659402	0.7993141	2	49	89821.53858	56.25	1.0735836000094423	2	0
98.99407265659829	0.7988983999966877	2	49	89822.44752	43.75	1.1832075999991503	2	0
99.79297105659498	0.7996863000007579	2	0	0	0	0	0	0
100.59265735659574	0.8003445000067586	2	49	89823.65562	93.75	0.7927227	2	0
101.3930018566025	0.8002429999905871	2	49	89824.56299	81.25	0.8997555999958422	2	0
102.19324485659308	0.7993384000001242	2	49	89825.38958	75	0.9261012000060873	2	0
102.9925832565932	0.7981805	1	0	0	0	0	0	0
103.79076375659497	0.7991366000060225	2	49	89826.96252	81.25	0.9015247000061208	2	0
104.58990035660099	0.7972512999986066	2	49	89827.79361	75	0.9334760999918217	2	0
105.3871516565996	0.7977203000045847	2	49	89828.68973	62.5	1.0323381000052905	2	0
106.18487195660418	0.7998203	2	49	89829.48185	62.5	1.0267401999881258	2	0
106.98469225660665	0.7993312999897171	2	49	89830.17764	75	0.9227133999957005	2	0
107.78402355659637	0.7962761000089813	2	49	89830.95178	81.25	0.8975225	2	0
108.58029965660535	0.7982910999999149	1	0	0	0	0	0	0
109.37859075660526	0.7976522999961162	2	49	89832.38609	100	0.7372637999942526	1	0
110.17624305660138	0.7986985000025015	2	49	89833.13272	93.75	0.6862437999952817	1	0
110.97494155660388	0.7975246999994852	2	49	89834.0039	100	0.7587271999946097	1	0
111.77246625660337	0.7975185	1	0	0	0	0	0	0
112.5699847565993	0.7992495000071358	2	49	89835.52884	93.75	0.6886211999953957	1	0
113.36923425660643	0.7998728999955347	1	49	89836.54408	81.25	0.9046058999956585	2	0
114.16910715660197	0.7986406999989413	2	0	0	0	0	0	0
114.96774785660091	0.8016951000026893	1	49	89838.17583	75	0.9378495999990264	2	0
115.7694429566036	0.7992215999984182	2	0	0	0	0	0	0
116.56866455660202	0.7991803000040818	2	0	0	0	0	0	0
117.3678448566061	0.7991612999903737	1	49	89840.45203	93.75	0.8139448000001721	2	0
118.16700615659647	0.7986935000080848	2	0	0	0	0	0	0
118.96569965660456	0.7992414999898756	2	49	89842.04239	93.75	0.8064577999903122	2	0
119.76494115659443	0.7984661000082269	2	49	89842.78241	100	0.7472361000109231	1	0
120.56340725660266	0.8016875000030268	2	49	89843.57217	100	0.7385286	1	0
121.36509475660569	0.7986831999878632	2	49	89844.45608	87.5	0.8207462999998825	2	0
122.16377795659355	0.7983971000066958	2	49	89845.25999	87.5	0.8259787999995751	2	0
122.96217505660024	0.7995653999969363	2	49	89846.05062	93.75	0.8182047000009334	2	0
123.76174045659718	0.7998281000036513	2	49	89846.75832	100	0.7263420999952359	1	0
124.56156855660083	0.8005217000027187	2	49	89847.63614	93.75	0.8043407999939518	2	0
125.36209025660355	0.8004416999901878	2	49	89848.54383	81.25	0.9115068999963114	2	0
126.16253195659374	0.7995415000041248	2	49	89849.47552	62.5	1.042757300005178	2	0
126.96207345659786	0.7973386999947252	2	49	89850.10228	81.25	0.8699737999995705	2	0
127.75941215659259	0.7991887000098359	2	49	89850.87376	87.5	0.8441146000113804	2	0
128.55860085660242	0.7998064999992494	2	49	89851.72727	81.25	0.8984333999978844	2	0
129.35840735660167	0.7986506000015652	2	0	0	0	0	0	0
130.15705795660324	0.8016792999987956	2	49	89853.13451	93.75	0.7072168000013335	1	0
130.95873725660203	0.7989608999923803	2	49	89854.02041	93.75	0.7914333999942755	2	0
131.75769815659442	0.7997884000069462	2	49	89855.01663	68.75	0.9886935000104131	2	0
132.55748655660136	0.7987182999931974	2	0	0	0	0	0	0
133.35620485659456	0.7984694000042509	2	49	89856.19976	81.25	0.5733164999983273	1	0
134.1546742565988	0.8006522000068799	2	49	89857.12402	93.75	0.6991148999950383	1	0
134.9553264566057	0.7994139999937033	2	49	89858.07216	87.5	0.8465971999976318	2	0
135.7547404565994	0.7994271000061417	2	49	89858.8601	87.5	0.8351252	2	0
136.55416755660553	0.8002290000003995	2	49	89859.7928	75	0.9684012999932747	2	0
137.35439655660593	0.8008656999882078	2	49	89860.5278	81.25	0.9031652999983635	2	0
138.15526225659414	0.7991372000105912	2	49	89861.32983	81.25	0.9043343	2	0
138.95439945660473	0.7990921999880811	1	0	0	0	0	0	0
139.75349165659281	0.7998587000038242	2	49	89862.86273	87.5	0.8390024000109406	2	0
140.55335035659664	0.8007571000052849	2	49	89863.70173	81.25	0.8781400000007125	2	0
141.35410745660192	0.7999830999906408	2	49	89864.54876	75	0.9244168	2	0
142.15409055659256	0.7992285000073025	2	49	89865.34475	81.25	0.9204210000025341	2	0
142.95331905659987	0.7995070000033593	2	49	89866.33677	56.25	1.113213499993435	2	0
143.75282605660323	0.7991125999978976	2	49	89867.05497	62.5	1.0319101999921259	2	0
144.55193865660112	0.7987137000018265	2	0	0	0	0	0	0
145.35065235660295	0.8003660999966087	2	49	89868.30413	93.75	0.6832469999935711	1	0
146.15101845659956	0.8002988999942318	2	49	89869.25496	87.5	0.8337066999956733	2	0
146.9513173565938	0.7990169000113383	2	49	89869.94289	100	0.7213377000007313	1	0
147.75033425660513	0.7987817999965046	2	49	89870.80193	93.75	0.7813620999950217	2	0
148.54911605660163	0.8005527999921469	2	49	89871.80153	68.75	0.9821773000003304	2	0
149.34966885659378	0.7988896000024397	2	49	89872.64217	62.5	1.0222705000051064	2	0
150.14855845659622	0.7995045	2	49	89873.42312	68.75	1.004328600000008	2	0
150.9480629565951	0.7988889000116615	2	49	89874.32742	56.25	1.1091204999975162	2	0
151.74695185660676	0.8002348999871174	2	49	89875.06905	62.5	1.0518660999950953	2	0
152.54718675659387	0.8002192999992985	2	49	89875.8471	62.5	1.0296779000054812	2	0
153.34740605659317	0.7977743000083137	2	49	89876.59325	68.75	0.9756115000054706	2	0
154.1451803566015	0.7990196000027936	2	49	89877.33517	81.25	0.9197497999994084	2	0
154.94419995660428	0.8003515999880619	2	49	89878.30406	56.25	1.0896224999887636	2	0
155.74455155659234	0.7980797000054736	2	49	89878.9541	75	0.9393142000044463	2	0
156.54263125659782	0.8003446000075201	1	0	0	0	0	0	0
157.34297585660534	0.7978971	2	49	89880.51057	81.25	0.8973623999918345	2	0
158.14087295660283	0.8011291	2	49	89881.29934	81.25	0.8882294999930309	2	0
158.9420020566031	0.7998957999952836	2	49	89882.0911	81.25	0.8788636999961454	2	0
159.74189785659837	0.8006839000008767	1	49	89882.85904	87.5	0.8469115	2	0
160.54258175659925	0.8004723000049125	2	49	89883.79133	68.75	0.9785077999986243	2	0
161.34305405660416	0.7975720999966143	2	49	89884.68033	62.5	1.0670429000019794	2	0
162.14062615660077	0.7982986999995774	2	49	89885.21045	93.75	0.7995878	2	0
162.93892485660035	0.8001744999928633	2	49	89886.02009	93.75	0.8109280000062427	2	0
163.73909935659321	0.7984642000083113	2	49	89886.92424	81.25	0.9149013999995077	2	0
164.53756355660153	0.7991416000004392	2	49	89887.6786	87.5	0.8708004999934928	2	0
165.33670515660197	0.7995962999993935	2	49	89888.65593	62.5	1.0489847999997437	2	0
166.13630145660136	0.7992599	2	49	89889.33548	75	0.9289432999939891	2	0
166.93556135660037	0.7984983999922406	2	49	89889.92934	100	0.7235458999930415	1	0
167.73405975659261	0.7983076000091387	2	49	89891.01786	68.75	1.0135650000011083	2	0
168.53236735660175	0.7987523000047076	2	49	89891.66341	87.5	0.8608049000031315	2	0
169.33111965660646	0.800994	2	49	89892.36176	100	0.7604047999921022	1	0
170.13211365659663	0.8010811999993166	2	49	89893.0628	87.5	0.6604496000072686	1	0
170.93319485659595	0.7982623999996576	2	49	89893.85901	87.5	0.6555800000060117	1	0
171.7314572565956	0.7997681999986526	2	49	89894.55382	75	0.5521290000033332	1	0
172.53122545659426	0.7992900000099326	2	49	89895.74179	75	0.9403299000114202	2	0
173.3305154566042	0.7992284999927506	1	49	89896.54923	75	0.9484817	2	0
174.12974395659694	0.7999434000084875	2	49	89897.34045	75	0.9404687000060221	2	0
174.92968735660543	0.8005776999925729	2	49	89898.16652	75	0.9665977999975439	2	0
175.7302651	0.8013302000035765	2	49	89899.00723	68.75	1.0067287999991095	2	0
176.53159525660158	0.8012304000003496	2	49	89899.6777	81.25	0.8758652999968035	2	0
177.33282565660193	0.7989854999905219	2	49	89900.51512	81.25	0.9120600000023842	2	0
178.13181115659245	0.7985407000087434	2	49	89901.25119	87.5	0.8491435000032652	2	0
178.9303518566012	0.8006956000026548	2	49	89902.17377	68.75	0.9731797999993432	2	0
179.73104745660385	0.7986148999916622	2	49	89902.91477	81.25	0.9134865999949398	2	0
180.5296623565955	0.7999851000058698	2	49	89903.76901	75	0.9691164000105346	2	0
181.32964745660138	0.7998676999995951	2	49	89904.4128	93.75	0.8129203999997117	2	0
182.12951515660097	0.7989593999955105	2	49	89905.30922	81.25	0.9094675999949686	2	0
182.92847455659648	0.7976482000085525	1	0	0	0	0	0	0
183.72612275660504	0.7992617999989307	1	0	0	0	0	0	0
184.52538455660397	0.7984015999973053	2	49	89907.80707	68.75	1.0114532000006875	2	0
185.32378615660127	0.7995106000016676	2	49	89908.44058	87.5	0.8465561999910278	2	0
186.12329675660294	0.7991315999970539	2	49	89909.39206	68.75	0.9985281999979634	2	0
186.9224284	0.7993989999959012	2	49	89910.16804	68.75	0.9753717999992659	2	0
187.7218273565959	0.7987452000088524	2	49	89910.95296	75	0.9608948000095552	2	0
188.52057255660475	0.7978951999975834	2	49	89911.84714	62.5	1.0563289999990957	2	0
189.31846775660233	0.8013876000040909	2	49	89912.60256	68.75	1.0138590999995358	2	0
190.11985535660642	0.7979996999929426	2	49	89913.47857	56.25	1.0884820999926887	2	0
190.91785505659936	0.7977594999974826	2	49	89914.32253	50	1.134440399997402	2	0
191.71561455659685	0.8006348000053549	2	49	89914.999	68.75	1.013145799995982	2	0
192.5162493566022	0.8015369999920949	2	49	89915.74721	75	0.9607231999980286	2	0
193.3177863565943	0.7995043999981135	2	49	89916.52422	75	0.9361941000097431	2	0
194.1172907565924	0.7987029000069015	2	49	89917.20426	93.75	0.8167332000011811	2	0
194.9159936565993	0.7990901000011945	2	49	89917.9274	100	0.7411707	1	0
195.7150837566005	0.8004173999943305	2	49	89918.72358	100	0.7382594999944558	1	0
196.51550115659484	0.7988175000064075	2	49	89919.44283	87.5	0.6570886000117753	1	0
197.31431865660124	0.7999937999993563	2	49	89920.25757	93.75	0.6730111999931978	1	0
198.1143124566006	0.7979655999952229	2	49	89921.2217	87.5	0.8371496000036132	2	0
198.91227805659582	0.7997777999989921	2	49	89922.08064	81.25	0.8981271000084234	2	0
199.71205585659482	0.8009115000022575	1	0	0	0	0	0	0
200.51296735659707	0.8009806000045501	2	49	89923.97632	43.75	1.1931171000032919	2	0
201.31394795660162	0.7995250999956625	2	0	0	0	0	0	0
202.1134730565973	0.7998654999973951	1	49	89925.24848	87.5	0.8647678999986965	2	0
202.91333855659468	0.8018558000039775	2	49	89926.30776	50	1.1241883000038797	2	0
203.71519435659866	0.7990248999994947	2	49	89927.006	62.5	1.0205699000071036	2	0
204.51421925659815	0.8001647000055527	2	49	89927.8927	56.25	1.1082414999982575	2	0
205.3143839566037	0.8014335999905597	2	49	89928.57557	68.75	0.9909536999912234	2	0
206.11581755659427	0.7998911000031512	2	49	89929.19072	93.75	0.8046641000109958	2	0
206.91570865659742	0.7997485000087181	2	49	89930.25666	62.5	1.0707155999989482	2	0
207.71545715660613	0.7989429999870481	1	0	0	0	0	0	0
208.51440015659318	0.8001892000029329	2	49	89931.88989	56.25	1.1052511000016239	2	0
209.31458935659612	0.7969362000003457	2	49	89932.51397	75	0.9291430000012042	2	0
210.11152555659646	0.7984802	2	49	89933.51766	50	1.1359026999998605	2	0
210.91000575659564	0.7989472	2	49	89934.39973	43.75	1.219485399997211	2	0
211.70895295660011	0.8001968000025954	2	0	0	0	0	0	0
212.5091497566027	0.7981205999967642	2	49	89935.25435	68.75	0.47496910000336356	1	0
213.30727035659947	0.7987202999938745	1	49	89936.21021	87.5	0.6326991999958409	1	0
214.10599065659335	0.7991115000040736	2	49	89937.42562	62.5	1.049390800006222	2	0
214.90510215659742	0.7999402999994345	2	49	89938.04688	81.25	0.8715397000050871	2	0
215.70504245659686	0.7978410000068834	2	49	89938.81947	87.5	0.8441912999987835	2	0
216.50288345660374	0.7978605999960564	2	49	89939.79943	62.5	1.0263076999981422	2	0
217.3007440565998	0.7989267999946605	2	49	89940.55366	68.75	0.9826837000000523	2	0
218.09967085659446	0.7998785	2	49	89941.36101	68.75	0.9911041000013938	2	0
218.89954935660353	0.7978074	2	49	89942.14098	68.75	0.9711910999903921	2	0
219.69735675660195	0.7995018999936292	2	49	89942.9232	75	0.9556028999941191	2	0
220.49685865659558	0.7987102000042796	2	49	89943.69494	75	0.9278461000067182	2	0
221.29556885659986	0.7974631999968551	1	0	0	0	0	0	0
222.0930320565967	0.7990832000068622	2	49	89945.03524	93.75	0.6719726000010269	1	0
222.89211525660357	0.8011378999945009	1	0	0	0	0	0	0
223.69325315659808	0.7978747000015574	2	49	89946.59206	87.5	0.6285688000061782	1	0
224.49112785659963	0.7984770000039134	2	49	89947.55826	93.75	0.7968916999961948	2	0
225.28960485660355	0.7990686	2	49	89948.3294	100	0.7695563000015682	1	0
226.0886734566011	0.8001804	2	49	89949.03216	93.75	0.6732505999971181	1	0
226.88885385659523	0.8002844000002369	1	49	89949.96747	93.75	0.8083846000081394	2	0
227.68913825659547	0.8009459000022616	2	0	0	0	0	0	0
228.49008415659773	0.7986724000074901	2	49	89951.55774	93.75	0.7974241000047186	2	0
229.28875655660522	0.7999460999999428	2	49	89952.48525	75	0.9262622999958694	2	0
230.08870265660516	0.7992277000012109	2	49	89953.27844	81.25	0.9195049999980256	2	0
230.88793035660638	0.7989469999884022	2	49	89954.28128	50	1.1231125999911455	2	0
231.68687735659478	0.7971360000083223	2	49	89954.94422	68.75	0.9871025000029476	2	0
232.4840133566031	0.7995546000020113	2	49	89955.84463	56.25	1.0903824999986682	2	0
233.2835679566051	0.7988303999882191	2	49	89956.54545	68.75	0.9916421999951126	2	0
234.08239835659333	0.7981833000085317	2	49	89957.25981	81.25	0.9071798000077251	2	0
234.88058165660186	0.7998037999932421	2	49	89958.12666	68.75	0.9758426999906078	2	0
235.6803854565951	0.7990693000028841	2	49	89958.99237	62.5	1.0417453999980353	2	0
236.4794548	0.7978715000062948	2	49	89959.92855	43.75	1.1788593999954173	2	0
237.27732625660428	0.7990299999946728	2	49	89960.66862	50	1.1210548999952152	2	0
238.07635625659896	0.8004403999948408	2	49	89961.34499	68.75	0.9983986000006553	2	0
238.8767966565938	0.7987460000003921	2	49	89961.99964	87.5	0.8526057999988552	2	0
239.6755426565942	0.7997712000069441	2	49	89962.81663	87.5	0.8708565000124509	2	0
240.47531385660113	0.7987437999981921	2	49	89963.66512	81.25	0.9195696999959182	2	0
241.27405765659933	0.7995805999962613	2	49	89964.39135	87.5	0.8470526000019163	2	0
242.0736382565956	0.7981794	2	49	89965.25178	81.25	0.9079034000023967	2	0
242.87181765660353	0.7987493999971775	1	0	0	0	0	0	0
243.6705670566007	0.7988898000039626	2	49	89966.7777	87.5	0.8368946999980835	2	0
244.46945685660467	0.8017605999921216	2	49	89967.53622	93.75	0.7965284999954747	2	0
245.2712174565968	0.8007102999981726	2	49	89968.3869	87.5	0.8454434000013862	2	0
246.07192775659496	0.7985845000075642	2	49	89969.23507	81.25	0.8929113000049256	2	0
246.87051225660252	0.7987295999919297	2	49	89969.98999	87.5	0.8492464000009932	2	0
247.66924185659445	0.7996504	1	49	89970.93274	68.75	0.9932612000120571	2	0
248.46889225659834	0.7988046999962535	2	0	0	0	0	0	0
249.2676969565946	0.7993805000005523	2	49	89972.28877	100	0.7508416000055149	1	0
250.06707745659514	0.7979045000101905	2	49	89973.18596	87.5	0.8486498	2	0
250.86498195660533	0.7990217999904417	2	49	89973.94214	93.75	0.8069194999989122	2	0
251.66400375659578	0.8012096000020392	1	49	89974.55574	81.25	0.6215035000059288	1	0
252.46521335659781	0.7937843999970937	2	49	89975.68834	75	0.9528910000080941	2	0
253.2589977565949	0.7972688	2	49	89976.51349	68.75	0.9842548000015086	2	0
254.0562665565958	0.8001464999979362	2	49	89977.15592	87.5	0.8294164999970235	2	0
254.85641305659374	0.7997487	2	49	89978.10309	68.75	0.9764393000077689	2	0
255.65616175660398	0.7972364000015659	2	49	89978.72919	93.75	0.8027892999962205	2	0
256.45339815660554	0.7995625999901677	1	49	89979.44996	100	0.7263237000006484	1	0
257.2529607565957	0.8028958000068087	1	0	0	0	0	0	0
258.0558565566025	0.7978805000020657	2	49	89981.12905	93.75	0.8029604999901494	2	0
258.8537370566046	0.7996733	2	49	89981.99726	81.25	0.8732912999985274	2	0
259.65341035659367	0.8018146000104025	2	49	89982.83652	81.25	0.9128782000043429	2	0
260.45522495660407	0.7982001999916974	2	49	89983.56149	87.5	0.8360279999906197	2	0
261.25342515659577	0.8003126999974484	2	49	89984.3671	87.5	0.8434381999977631	2	0
262.0537378565932	0.8003307	1	49	89985.18616	87.5	0.8621817	2	0
262.85406855659676	0.7982722000015201	1	0	0	0	0	0	0
263.6523407565983	0.7986033000051975	2	49	89986.76324	87.5	0.8406617000000551	2	0
264.4509440566035	0.7994496999890544	2	49	89987.5786	87.5	0.8574214999971446	2	0
265.25039375659253	0.8004084000131115	2	49	89988.25434	100	0.7337153000116814	1	0
266.05080215660564	0.8007062999968184	2	49	89989.06423	100	0.7431924	1	0
266.85150845660246	0.8025073000026168	2	49	89989.98569	87.5	0.8639489999914076	2	0
267.6540157566051	0.7989998999983072	2	49	89990.97959	62.5	1.055342899999232	2	0
268.4530156566034	0.8008415999938734	2	49	89991.71987	68.75	0.9966213000006974	2	0
269.25385725659726	0.7978987999958917	2	49	89992.47361	75	0.9495173000032082	2	0
270.05175605659315	0.7987312000041129	2	49	89993.4917	43.75	1.1697064000036335	2	0
270.85048725659726	0.8005071000079624	1	49	89993.98457	87.5	0.8638496000057785	2	0
271.6509943566052	0.8012682999979006	2	0	0	0	0	0	0
272.4522626566031	0.7984603999939281	2	49	89995.55969	87.5	0.8371935999894049	2	0
273.25072305659705	0.7988900000054855	2	49	89996.41696	81.25	0.8960042999970028	2	0
274.04961305660254	0.7975709000020288	2	49	89997.17634	87.5	0.8564905999955954	2	0
274.84718395660457	0.7986214999982622	2	49	89997.86465	100	0.7472266999975545	1	0
275.64580545660283	0.7995131999923615	2	49	89998.78968	81.25	0.8736433000012767	2	0
276.4453186565952	0.8001699000014924	2	0	0	0	0	0	0
277.2454885565967	0.7994976000045426	2	49	90000.49499	68.75	0.9792616000049748	2	0
278.0449861566012	0.7994971000007354	2	49	90001.4708	50	1.1555833000020357	2	0
278.84448325660196	0.8007376000023214	2	49	90002.11056	68.75	0.9958433	2	0
279.6452208566043	0.8014989	2	49	90002.80903	81.25	0.8935722000023816	2	0
280.4467197565973	0.7970706000050995	2	49	90003.59821	81.25	0.8812579000077676	2	0
281.2437903566024	0.7985686000029091	1	49	90004.42413	81.25	0.9101081	2	0
282.0423589566053	0.8006815999979153	2	0	0	0	0	0	0
282.8430405566032	0.7992939999967348	2	49	90005.98286	81.25	0.8695838999992702	2	0
283.64233455659996	0.7976651000062702	2	49	90006.7504	87.5	0.8378309999970952	2	0
284.43999965660623	0.7985939999925904	2	49	90007.73722	62.5	1.0269805999996606	2	0
285.2385936565988	0.7971319000062067	1	0	0	0	0	0	0
286.03572555660503	0.7990053999965312	2	0	0	0	0	0	0
286.83473095660156	0.7988421999907587	2	49	90010.08393	68.75	0.9789678999950411	2	0
287.6335731565923	0.8008741000085138	2	49	90010.69207	93.75	0.788263	2	0
288.43444725660083	0.7978233000030741	2	49	90011.54968	87.5	0.8450016999995569	2	0
289.2322705566039	0.7982965999981388	2	49	90012.379	81.25	0.8764948999887565	2	0
290.03056715660205	0.8005321	1	49	90013.19341	81.25	0.8926119	2	0
290.83109925659664	0.7985290000069654	2	0	0	0	0	0	0
291.6296282566036	0.7995893999905093	2	49	90014.74919	87.5	0.8493237999937264	2	0
292.4292176565941	0.7996298000070965	2	49	90015.52105	87.5	0.8215946999989683	2	0
293.2288474566012	0.8006233999913093	2	49	90016.22154	100	0.7224592999991728	1	0
294.0294708565925	0.8014317	2	49	90017.25417	75	0.9544625000125961	2	0
294.8309025565977	0.8005187000089791	2	49	90018.02429	75	0.9231500000023516	2	0
295.6314212566067	0.7969411	2	49	90018.65316	100	0.7514988999901107	1	0
296.4283623566007	0.7995203000027686	1	49	90019.48109	93.75	0.7824930000060704	2	0
297.22788265660347	0.7995198999997228	2	0	0	0	0	0	0
298.0274025566032	0.8002728999999817	2	49	90020.99527	93.75	0.6976297999935923	1	0
298.8276754566032	0.7979610999900615	2	49	90021.7682	93.75	0.6702854999894043	1	0
299.62563655659324	0.7988676000095438	2	49	90022.8407	75	0.9448258000047645	2	0
300.4245041566028	0.8013959999952931	2	49	90023.57048	81.25	0.8757389	2	0
301.2259001565981	0.7993397999962326	2	49	90024.35846	87.5	0.8623224000039045	2	0
302.0252399565943	0.7996606000087922	2	49	90025.20378	81.25	0.9083056000090437	2	0
302.8249005566031	0.7987729000014951	2	49	90025.96769	81.25	0.8725505999900633	2	0
303.6236734566046	0.8846408999961568	2	49	90026.6524	93.75	0.7584880999929737	1	0
304.50831435660075	0.7979680999997072	2	49	90027.56151	93.75	0.7829576999938581	2	0
305.30628245660046	0.7993925000046147	2	49	90028.38158	93.75	0.8050577999965753	2	0
306.10567495660507	0.7984855999966385	2	49	90029.15644	93.75	0.7805301999906078	2	0
306.9041605566017	0.8002221999922767	2	49	90030.32404	50	1.1496425999939675	2	0
307.7043828	0.7993706999986898	2	49	90030.81646	87.5	0.8418426999996882	2	0
308.5037534565927	0.7996077000134392	2	49	90031.56978	93.75	0.7957954000012251	2	0
309.3033611566061	0.7989247	2	49	90032.43961	87.5	0.8660170999937691	2	0
310.10228585659934	0.8024155000020983	2	49	90033.28552	81.25	0.9130011999950511	2	0
310.90470135660144	0.7987198000046192	2	49	90034.00986	87.5	0.8349279999965802	2	0
311.70342115660605	0.7986405999981798	1	49	90034.77374	93.75	0.8000807999924291	2	0
312.50206175660423	0.7997801000019535	2	0	0	0	0	0	0
313.3018418566062	0.7993997999874409	1	49	90036.60875	62.5	1.036676699994132	2	0
314.10124165659363	0.7975267000001622	2	0	0	0	0	0	0
314.8987683565938	0.7993652000004658	2	0	0	0	0	0	0
315.69813355659426	0.7981261000095401	2	49	90038.39498	62.5	0.4266065000119852	1	0
316.4962596566038	0.7981526999938069	2	49	90039.5008	100	0.7343095999967773	1	0
317.2944123565976	0.7996147999947425	2	49	90040.33497	100	0.7703228000027593	1	0
318.09402715659235	0.7980016000074102	2	49	90041.23583	81.25	0.8715712	2	0
318.89202875659976	0.7986451000033412	1	49	90042.018	87.5	0.8557332000054885	2	0
319.6906738566031	0.7997840000025462	1	0	0	0	0	0	0
320.49045785660564	0.7998538	2	49	90043.70616	75	0.9454663999931654	2	0
321.29031165660126	0.7979546999995364	2	49	90044.30633	100	0.7457806000020355	1	0
322.0882663566008	0.8009120999922743	2	49	90044.91291	75	0.5544094999931986	1	0
322.8891784565931	0.7997822000033921	2	49	90045.72408	75	0.5646710000000894	1	0
323.68896065659646	0.7995123000000603	2	49	90046.47794	68.75	0.5187412000086624	1	0
324.4884729565965	0.8004573000071105	1	49	90047.17607	56.25	0.4173589999991236	1	0
325.28893025660363	0.7986175	2	49	90048.5382	68.75	0.9790342	2	0
326.08754775660054	0.7986975	2	49	90049.21642	87.5	0.8586338000022806	2	0
326.88624525659543	0.8004302000044845	2	49	90049.93906	93.75	0.7825786000030348	2	0
327.6866754565999	0.8006732000067132	1	49	90050.78615	87.5	0.8292354000004707	2	0
328.4873486566066	0.7980329999991227	1	0	0	0	0	0	0
329.28538165660575	0.7993663999950513	2	49	90052.42523	87.5	0.8696095999912359	2	0
330.0847480566008	0.7981930999958422	2	49	90053.16146	93.75	0.8064788000046974	2	0
330.88294115659664	0.8000266000017291	2	49	90053.95179	93.75	0.7986130000062985	2	0
331.6829677565984	0.7971985000040149	2	49	90054.85322	81.25	0.9000190000078874	2	0
332.4801662566024	0.7988229	2	49	90055.77516	62.5	1.0247628999932203	2	0
333.27898915660626	0.8005006999883335	2	49	90056.3881	87.5	0.8388715999899432	2	0
334.0794898565946	0.8023482999997213	2	49	90057.29438	75	0.9446596000052523	2	0
334.8818381565943	0.7972733000060543	2	49	90057.97615	87.5	0.8240719000023091	2	0
335.67911145660037	0.7998372000001837	2	49	90058.9599	68.75	1.0105486999964342	2	0
336.47894865660055	0.7991960999934236	2	49	90059.65356	81.25	0.9043739000044297	2	0
337.2781448	0.7993124000058742	2	49	90060.31255	100	0.7641734	1	0
338.07745715659985	0.7994608000008157	2	49	90061.1798	87.5	0.8321064000047045	2	0
338.87691795660066	0.7995506000006571	2	49	90061.89499	100	0.7478371000033803	1	0
339.6764685566013	0.8005884000012884	2	49	90062.56913	87.5	0.6224214	1	0
340.4770569566026	0.7990589999972144	2	49	90063.5145	100	0.7672066999948584	1	0
341.2761159565998	0.7991802000033204	2	49	90064.31873	93.75	0.7723812000040198	2	0
342.07529615660314	0.8002646999957506	2	49	90065.15293	93.75	0.8073948	2	0
342.8755608565989	0.7986342000076547	1	49	90065.85791	93.75	0.7121111000014935	1	0
343.67419505660655	0.7981970999971963	2	0	0	0	0	0	0
344.47239215660375	0.7988346999918576	2	49	90067.40259	87.5	0.6599582999915583	1	0
345.2712268565956	0.7991041	1	49	90068.23357	93.75	0.6921068000083324	1	0
346.07033095660154	0.7977487000025576	2	49	90069.49493	50	1.1543657000001986	2	0
346.8680796566041	0.7986728	2	49	90070.20174	62.5	1.063424899999518	2	0
347.6667524566001	0.7997393999976339	2	49	90071.21908	31.25	1.2820938999939244	2	0
348.4664918565977	0.7986533000075724	2	49	90071.60668	81.25	0.8699497000052361	2	0
349.2651451566053	0.7982504999963567	2	49	90072.28228	100	0.7468956999946386	1	0
350.06339565660164	0.7994554000033531	2	49	90073.12182	93.75	0.7881894000020111	2	0
350.8628511	0.7995435999910114	2	49	90073.98474	87.5	0.8516524000006029	2	0
351.6623947	0.8001178999984404	2	49	90074.845	81.25	0.9123715000023367	2	0
352.46251255659445	0.7982977000065148	2	49	90075.82646	56.25	1.0937153000122635	2	0
353.26081025660096	0.7998898999940138	2	49	90076.47974	75	0.9486957	2	0
354.0607002	0.7997695000085514	2	49	90077.14901	93.75	0.8180726999999024	2	0
354.8604696566035	0.7986568999913288	2	49	90077.96691	87.5	0.8362048	2	0
355.65912655659486	0.7989894000056665	2	49	90078.91635	68.75	0.9869886000087718	2	0
356.4581159566005	0.8006110999995144	2	49	90079.62254	81.25	0.8941926999978023	2	0
357.25872705660004	0.7994604999985313	2	49	90080.45278	75	0.9238182999979472	2	0
358.05818755659857	0.8002811000042129	2	49	90081.28907	75	0.9606488	2	0
358.8584686566028	0.7994898999895668	2	49	90082.13568	68.75	1.0069742999912705	2	0
359.65795855659235	0.7990191000135383	1	0	0	0	0	0	0
360.4569776566059	0.7993987999943784	2	49	90083.63399	81.25	0.9067745999927865	2	0
361.25637645660026	0.7987920000014128	1	0	0	0	0	0	0
362.0551684566017	0.7982154999917839	2	49	90084.91515	81.25	0.5897471999924164	1	0
362.85338395659346	0.7974393000040436	1	0	0	0	0	0	0
363.6508232565975	0.7978776000090875	2	49	90086.26141	50	0.3403551000083098	1	0
364.4487008566066	0.7989648999937344	2	49	90087.71237	68.75	0.9934337	2	0
365.2476657566003	0.7991411	2	49	90088.52874	68.75	1.0108386999927461	2	0
366.04680685659696	0.7983909000031417	2	49	90089.16968	87.5	0.8526348000013968	2	0
366.8451977566001	0.8008807000005618	1	0	0	0	0	0	0
367.64607845660066	0.7993967999937013	2	49	90090.81399	81.25	0.8976775000046473	2	0
368.44547525659436	0.8000022000051104	1	0	0	0	0	0	0
369.2454774565995	0.7990429000055883	2	49	90092.23241	93.75	0.7166942000039853	1	0
370.04452035660506	0.8000054000003729	2	49	90093.44127	50	1.1265119999879971	2	0
370.84452575660544	0.7977603999897838	2	49	90094.00645	81.25	0.8916905	2	0
371.6422861565952	0.8003058	2	49	90094.85028	75	0.9377537999971537	2	0
372.44259195659833	0.7982454000011785	2	49	90095.68199	68.75	0.9691592000017408	2	0
373.2408373565995	0.7987036999984412	2	49	90096.58166	56.25	1.0705864000046859	2	0
374.03954105659795	0.8008329000003869	2	49	90097.4221	56.25	1.1123194999963744	2	0
374.84037395659834	0.8010235999972792	2	49	90098.22202	56.25	1.1114113000076031	2	0
375.6413975565956	0.7990611999994144	1	0	0	0	0	0	0
376.44045875659504	0.7986342000076547	1	49	90099.44152	100	0.7308282000012696	1	0
377.2390929566027	0.8006861000030767	2	0	0	0	0	0	0
378.03977905660577	0.7993068999930983	2	49	90101.30967	68.75	0.9996536999969976	2	0
378.83908595659886	0.7978033999970648	2	49	90102.04575	75	0.9364328999945428	2	0
379.63688935659593	0.7985328000067966	2	49	90102.87051	75	0.9633887000090908	2	0
380.4354221566027	0.8000660999969114	2	49	90103.57366	87.5	0.8680073	2	0
381.23548825659964	0.7996282999956748	1	0	0	0	0	0	0
382.0351165565953	0.8006747	2	49	90105.0908	93.75	0.785451	2	0
382.8357912565989	0.7999513999966439	2	49	90106.2608	50	1.1547717000066768	2	0
383.63574265659554	0.8006031999975676	2	49	90107.24888	25	1.3429021000047214	2	0
384.4363458565931	0.7997434000135399	1	0	0	0	0	0	0
385.23608925660665	0.7995048999873688	2	49	90108.36887	87.5	0.8625440999894636	2	0
386.0355942	0.8003659000096377	2	0	0	0	0	0	0
386.83596005660365	0.7987944999913452	2	49	90109.57292	62.5	0.4667200999974739	1	0
387.6347546	0.8003058	2	49	90110.80021	81.25	0.8952161000052001	2	0
388.4350603565981	0.7999024000018835	2	49	90111.61193	81.25	0.9066390000079991	2	0
389.2349628	0.7992670999956317	2	49	90112.42281	81.25	0.9176160000060918	2	0
390.03422985659563	0.7993490000080783	1	49	90113.02395	93.75	0.7194796999974642	1	0
390.8335788566037	0.7995831000007456	2	49	90114.22991	50	1.1260951000003843	2	0
391.63316195660445	0.7993554999993648	1	0	0	0	0	0	0
392.4325174566038	0.7995106000016676	2	0	0	0	0	0	0
393.2320280566055	0.7989047999872128	2	49	90116.26599	100	0.7637284999946132	1	0
394.0309328565927	0.8019734000117751	2	49	90117.00189	93.75	0.7007242000108818	1	0
394.8329062566045	0.7998064999992494	2	49	90118.03198	75	0.9288395999901695	2	0
395.6327127566037	0.8019191999919713	2	49	90118.79539	81.25	0.8924450999911642	2	0
396.4346319565957	0.8002036000107182	2	49	90119.6461	75	0.9412280000105966	2	0
397.2348355566064	0.8006761999859009	2	49	90120.3417	87.5	0.8366248999955133	2	0
398.0355117565923	0.7999255000031553	2	49	90121.25112	75	0.9453766000078758	2	0
398.83543725659547	0.7979462000075728	2	49	90121.97107	87.5	0.8654019000096014	2	0
399.63338345660304	0.8006298999971477	1	0	0	0	0	0	0
400.4340133566002	0.8011871000053361	2	49	90123.50371	93.75	0.7994605999992928	2	0
401.2352004566055	0.7998966999875847	2	49	90124.4563	75	0.9508594999933848	2	0
402.0350971565931	0.7986531000060495	2	49	90125.18616	81.25	0.8808259000070393	2	0
402.83375025659916	0.8014082000008784	2	49	90126.01043	81.25	0.9064491000026464	2	0
403.63515845660004	0.8005051999934949	2	49	90126.66756	100	0.7621704000048339	1	0
404.43566365659353	0.7997482000064338	2	49	90127.65227	75	0.9463687000097707	2	0
405.23541185659997	0.8022057000052882	2	49	90128.6584	50	1.1527528000005987	2	0
406.03761755660526	0.7986393	1	0	0	0	0	0	0
406.83625685659354	0.7994068000116386	2	49	90130.0016	81.25	0.8951038000086555	2	0
407.6356636566052	0.7985146999999415	2	49	90130.71052	93.75	0.8046161999955075	2	0
408.4341783566051	0.8008405000000494	1	0	0	0	0	0	0
409.23501885660517	0.8005776999925729	2	49	90132.4195	81.25	0.9142452999949455	2	0
410.03559655659774	0.8016591000050539	2	0	0	0	0	0	0
410.8372556566028	0.7987528	1	49	90134.0707	75	0.9632082000025548	2	0
411.63600845659676	0.8012351000070339	2	0	0	0	0	0	0
412.4372435566038	0.7991261999995913	2	0	0	0	0	0	0
413.2363697566034	0.7990370999905281	2	49	90136.56836	62.5	1.0617563999985578	2	0
414.0354068565939	0.8017249000113225	2	49	90137.50772	43.75	1.2020776999997906	2	0
414.83713175660523	0.7989372000010917	2	49	90138.23983	50	1.1324581999942893	2	0
415.6360689566063	0.7986084000003757	2	49	90138.99312	56.25	1.086812399997143	2	0
416.4346773566067	0.7987307999865152	2	49	90139.7768	56.25	1.0718902999942657	2	0
417.2334081565932	0.8020461	1	0	0	0	0	0	0
418.0354542566056	0.7995042999973521	2	49	90141.13867	87.5	0.8329775999882258	2	0
418.83495855660294	0.8003700999979628	1	0	0	0	0	0	0
419.6353286566009	0.7985858000029111	2	49	90142.72968	87.5	0.8241179000033299	2	0
420.4339144566038	0.8007179999985965	2	49	90143.55574	87.5	0.8515902999934042	2	0
421.2346324566024	0.7999075999978231	2	49	90144.30331	93.75	0.7984371999918949	2	0
422.03454005660024	0.8000864000059664	2	0	0	0	0	0	0
422.8346264566062	0.8004107999877306	2	49	90145.87096	100	0.7660999999934575	1	0
423.63503725659393	0.7976181000121869	2	49	90146.94686	62.5	1.041582700010622	2	0
424.4326553566061	0.7980897	2	49	90147.58714	81.25	0.8842540999903576	2	0
425.2307450566004	0.8019297999999253	2	49	90148.48846	68.75	0.9874756000062916	2	0
426.03267485660035	0.8003329	2	49	90149.17001	87.5	0.8671027999953367	2	0
426.8330077566061	0.7988059	2	49	90149.959	87.5	0.8557591999997385	2	0
427.63181365659693	0.7998532000056002	1	0	0	0	0	0	0
428.43166685660253	0.7988331999949878	2	49	90151.50442	93.75	0.8025181999983033	2	0
429.2305000565975	0.8011277000041446	2	49	90152.34035	87.5	0.8396103999984916	2	0
430.03162775660167	0.7999837999959709	1	0	0	0	0	0	0
430.83161155659764	0.7993754000053741	2	49	90154.04736	75	0.9455149999994319	2	0
431.630987	0.7981937000004109	2	49	90154.73849	87.5	0.8372686999937287	2	0
432.4291806566034	0.7998417999915546	2	49	90155.67205	68.75	0.9726385999965714	2	0
433.2290225	0.8013823000073899	2	49	90156.32937	87.5	0.8301107000006596	2	0
434.03040475660237	0.8024450999946566	1	49	90157.23152	75	0.9308753	2	0
434.8328499	0.800611	2	0	0	0	0	0	0
435.6334608565958	0.7998637999990024	2	49	90159.21655	31.25	1.3128506000066409	2	0
436.4333246565948	0.8006121000071289	2	49	90159.58028	81.25	0.8767186000040965	2	0
437.2339367566019	0.8002145999926142	2	49	90160.35422	87.5	0.8500461	2	0
438.0341513565945	0.8000931999995373	2	0	0	0	0	0	0
438.83424455659406	0.8006849000084912	2	49	90161.97126	87.5	0.8667817000095965	2	0
439.63492945660255	0.8499723999993876	2	49	90162.77656	87.5	0.8713977000006707	2	0
440.48490185660194	0.8003160999942338	2	49	90163.73884	68.75	0.9837048999906983	2	0
441.28521795659617	0.7998747000092408	2	49	90164.55208	68.75	0.9966294000041671	2	0
442.0850926566054	0.7992835999903036	1	0	0	0	0	0	0
442.8843762565957	0.7988053000008222	2	49	90165.96745	93.75	0.8128406000032555	2	0
443.68318155659654	0.8007612000074005	2	49	90167.02466	62.5	1.0712411999993492	2	0
444.48394275660394	0.8000993	2	49	90167.55319	93.75	0.7990157000022009	2	0
445.28404205660627	0.7977386999991722	1	49	90168.43464	81.25	0.8803628	2	0
446.08178075660544	0.7991145999985747	2	49	90169.29258	75	0.9405661999917356	2	0
446.8808954	0.7992298000026494	2	49	90170.06182	81.25	0.9106885999935912	2	0
447.68012515660666	0.7991575999913039	2	49	90170.80268	87.5	0.8523144999926444	2	0
448.47928275659797	0.7992979999980889	2	49	90171.74656	68.75	0.9970436000003247	2	0
449.27858075659606	0.8004532000049949	2	49	90172.62957	56.25	1.0807515000051353	2	0
450.07903395660105	0.8002170999970986	2	49	90173.33267	68.75	0.9833975999936229	2	0
450.87925105659815	0.8001345999946352	2	49	90174.15567	68.75	1.006184600002598	2	0
451.6793856565928	0.8011565000051633	2	49	90174.98492	62.5	1.0352966000064043	2	0
452.48054215659795	0.7986254999996163	2	49	90175.77028	68.75	1.0195042999985162	2	0
453.27916765659756	0.7990721999958623	1	0	0	0	0	0	0
454.0782398565934	0.8002782000112347	2	49	90177.39837	62.5	1.0498907000001054	2	0
454.87851805660466	0.8017340999940643	2	49	90178.05607	81.25	0.9073129999887897	2	0
455.6802521565987	0.7994693000073312	2	49	90178.83775	81.25	0.8872608999954537	2	0
456.47972145660606	0.7983076999953482	1	0	0	0	0	0	0
457.2780291566014	0.7999924000032479	2	49	90180.41589	87.5	0.8676238000043668	2	0
458.07802155660465	0.7979178999958094	2	49	90181.49019	50	1.1419299999979557	2	0
458.87593945660046	0.7975854999967851	2	49	90182.11722	68.75	0.9710437000030652	2	0
459.67352495659725	0.8003271000052337	2	49	90183.09149	50	1.1477278000093065	2	0
460.4738520566025	0.7993836999958148	2	0	0	0	0	0	0
461.2732357565983	0.7998893	2	49	90184.74391	43.75	1.2004425000050105	2	0
462.0731250566023	0.7986516999953892	2	0	0	0	0	0	0
462.8717767565977	0.7990649999992456	2	49	90185.80098	87.5	0.6589633999974467	1	0
463.67084175659693	0.7995278000016697	1	49	90186.92108	68.75	0.9799992000043858	2	0
464.4703695565986	0.8013834000012139	2	49	90187.68619	75	0.9455814999964787	2	0
465.2717529565998	0.8008825	2	49	90188.50118	75	0.9591936999931931	2	0
466.0726354565995	0.7988653999927919	2	49	90189.245	81.25	0.9021260000008624	2	0
466.8715008565923	0.8003715000086231	2	49	90190.18661	62.5	1.0448748000053456	2	0
467.67187235660094	0.7980998999992153	2	49	90190.9772	62.5	1.0350901000056183	2	0
468.46997225660016	0.7980183	2	49	90191.68449	75	0.9442790000030072	2	0
469.26799055660376	0.7993148999958066	2	49	90192.45047	81.25	0.9122392999997828	2	0
470.06730545659957	0.8015957000025082	2	49	90193.35897	68.75	1.0214241000066977	2	0
470.8689011566021	0.8004341999912867	2	49	90194.26011	50	1.1209689999959664	2	0
471.66933535659336	0.8000248000025749	2	49	90194.91742	68.75	0.9778495	2	0
472.46936015659594	0.8014426000008825	2	49	90195.8185	56.25	1.0788997000054223	2	0
473.2708027565968	0.7982064000098035	2	49	90196.67857	50	1.137532900000224	2	0
474.0690091566066	0.8008209999970859	2	49	90197.32674	68.75	0.9874920999864116	2	0
474.8698301566037	0.8005241999926511	2	49	90198.09151	75	0.9514475	2	0
475.67035435659636	0.7968363999971189	2	49	90198.83761	81.25	0.8970239000045694	2	0
476.4671907565935	0.8011141000024509	2	49	90199.85881	56.25	1.121381700009806	2	0
477.26830485659593	0.8019963999977335	2	49	90200.4825	75	0.9439579000027152	2	0
478.07030125659367	0.8007421000074828	1	0	0	0	0	0	0
478.87104335660115	0.8016949000011664	2	49	90201.99764	87.5	0.8563649999996414	2	0
479.6727382566023	0.7979911000002176	2	49	90202.73874	93.75	0.7957628000003751	2	0
480.47072935660253	0.7987376999953995	2	49	90203.81856	56.25	1.0775904999900376	2	0
481.26946705659793	0.7998556999955326	1	0	0	0	0	0	0
482.06932275659346	0.7997613000043202	2	49	90205.11154	93.75	0.7719770000112476	2	0
482.8690840565978	0.8002225999953225	1	0	0	0	0	0	0
483.6693066565931	0.7975770000048215	2	49	90206.48282	75	0.5432775000081165	1	0
484.46688365659793	0.7986032000044361	2	49	90207.95739	37.5	1.2202723999944283	2	0
485.26548685660237	0.7999335999920731	1	49	90208.49705	75	0.9613312000001315	2	0
486.06542045659444	0.7980921999987913	2	49	90209.41749	56.25	1.0818356000090716	2	0
486.86351265659323	0.7996942000027047	2	49	90210.15171	68.75	1.0179616000095848	2	0
487.66320685659593	0.7998565000016242	1	0	0	0	0	0	0
488.46306335659756	0.8008624000067357	2	49	90211.66176	75	0.9284627000015462	2	0
489.2639257566043	0.7990257999917958	2	49	90212.5241	68.75	0.9899413999955868	2	0
490.0629515565961	0.7992410000006203	2	49	90213.39546	62.5	1.0622718000086024	2	0
490.8621925565967	0.7994040000048699	2	49	90214.07551	75	0.9430786000011722	2	0
491.6615965566016	0.7988544	1	49	90214.73917	93.75	0.8073408	2	0
492.4604509565979	0.7987082000036025	2	49	90215.75307	62.5	1.022387000004528	2	0
493.2591591566015	0.7992056999937631	2	49	90216.52806	68.75	0.9986623000004329	2	0
494.0583648565953	0.7984595	2	49	90217.28726	75	0.9586575	2	0
494.8568243565969	0.8016325000062352	2	0	0	0	0	0	0
495.65845685660315	0.7996389000036288	2	0	0	0	0	0	0
496.4580957566068	0.8005264999956125	2	0	0	0	0	0	0
497.2586222566024	0.8002569999953266	2	0	0	0	0	0	0
498.0588792565977	0.7986226000066381	1	49	90221.31178	68.75	0.9826612000033492	2	0
498.85750185660436	0.8001011000014842	2	0	0	0	0	0	0
499.65760295660584	n/a	0	0	0	0	0	0	0