onset	duration	cue	constant1	timestamp	stimulus_coherence	response_time	response	constant2
20.398638631053473	0.8244427999998152	2	49	13883.05513	62.5	1.0626818999990064	2	0
21.223081431053288	0.8151610999993864	2	49	13883.54679	93.75	0.7298977999998897	1	0
22.038242531052674	0.8276260000002367	2	49	13884.50481	87.5	0.8727600000001985	2	0
22.86586853105291	0.8164919999999256	2	49	13885.28899	93.75	0.8293047000006482	2	0
23.682360531052836	0.8101356999995915	2	49	13886.23389	75	0.9577222000007168	2	0
24.492496231052428	0.8211811000001035	2	49	13886.91917	93.75	0.8328605000006064	2	0
25.31367733105253	0.8211752000006527	2	49	13887.80326	81.25	0.8957690000006551	2	0
26.134852531053184	0.8214848000006896	2	49	13888.57801	87.5	0.8493493000005401	2	0
26.956337331053874	0.8196893999993335	2	49	13889.35083	93.75	0.8006824	2	0
27.776026731053207	0.8123856000001979	2	49	13890.14139	100	0.7715528999997332	1	0
28.588412331053405	0.8141243999998551	2	49	13891.08427	81.25	0.9020415	2	0
29.40253673105326	0.8196342999999615	2	49	13891.89231	81.25	0.8959656000006362	2	0
30.22217103105322	0.8153631999994104	2	49	13892.78111	75	0.9651245000004565	2	0
31.037534231052632	0.8197342000003118	2	49	13893.50245	87.5	0.8711002000000008	2	0
31.857268431052944	0.8125951000001805	2	49	13894.36919	81.25	0.9181085000000166	2	0
32.669863531053124	0.8264617999993789	2	49	13895.21824	75	0.9545636999991984	2	0
33.49632533	0.8271598000010272	2	49	13895.92127	93.75	0.8311296	2	0
34.32348513105353	0.8174492999987706	2	49	13896.75729	87.5	0.8399955999993836	2	0
35.14093443	0.8131081999999878	1	49	13897.66367	81.25	0.9289227000008395	2	0
35.95404263105229	0.8163911999999982	2	49	13898.5224	75	0.9745433000007324	2	0
36.77043383105229	0.8184470000014699	2	49	13899.21928	87.5	0.8550311000017246	2	0
37.58888083105376	0.8149431000001641	2	49	13900.07469	81.25	0.8919943000000785	2	0
38.40382393105392	0.8240344999994704	1	49	13900.85921	87.5	0.8615747999992891	2	0
39.22785843105339	0.8176358999990043	1	49	13901.58044	100	0.7587712999993528	1	0
40.045494331052396	0.8121342000013101	2	49	13902.38248	100	0.7431783	1	0
40.857628531053706	0.8130260999987513	2	49	13903.25262	93.75	0.8011767999996664	2	0
41.67065463105246	0.8221990000001824	2	49	13904.11661	87.5	0.8521469000006618	2	0
42.49285363105264	0.8196939999997994	2	49	13904.89461	93.75	0.8079457000003458	2	0
43.31254763105244	0.8258835000015097	2	49	13905.77586	87.5	0.8694974999998522	2	0
44.13843113105395	0.8185280999987299	2	49	13906.56227	93.75	0.8300282999989577	2	0
44.95695923105268	0.8194399000003614	2	49	13907.41333	87.5	0.8625604000008025	2	0
45.77639913105304	0.8191725	2	49	13908.28303	81.25	0.9128187	2	0
46.595571631052735	0.8110219000009238	2	49	13909.18913	68.75	0.9997414000008575	2	0
47.40659353105366	0.8143001999997068	2	49	13910.10367	56.25	1.103266899999653	2	0
48.220893731053366	0.8167111000002478	2	49	13910.81999	68.75	1.005282599999191	2	0
49.03760483105361	0.8110526999989816	2	49	13911.53305	81.25	0.9016305999994074	2	0
49.848657531052595	0.8179660000005242	1	49	13912.27208	93.75	0.8296100000006845	2	0
50.66662353105312	0.8181046999998216	2	49	13913.17966	81.25	0.9192211999998108	2	0
51.48472823105294	0.8201124999995955	1	49	13914.08486	68.75	1.0063153999999486	2	0
52.304840731052536	0.8170406999997795	2	49	13914.71174	93.75	0.8130882000004931	2	0
53.121881431052316	0.8143317000012757	2	49	13915.52184	93.75	0.8061513000011473	2	0
53.93621313105359	0.8235386999986076	2	49	13916.33805	93.75	0.8080258999998478	2	0
54.75975183	0.8196342	2	49	13917.17009	93.75	0.8165308000006917	2	0
55.57938603105322	0.8270814000006794	2	49	13918.03609	87.5	0.8628958999997849	2	0
56.40646743	0.8220177999992302	2	49	13918.86231	87.5	0.8620294	2	0
57.22848523105313	0.8200273999991623	2	49	13919.8559	68.75	1.0336043999996036	2	0
58.04851263105229	0.813588	1	0	0	0	0	0	0
58.86210063105318	0.8302456999990682	2	49	13921.30334	93.75	0.8474227999995492	2	0
59.69234633105225	0.8287808000004588	2	49	13922.2121	81.25	0.9259437000000617	2	0
60.52112713105271	0.8216444000008778	2	49	13923.12457	68.75	1.009631900000386	2	0
61.342771531053586	0.8262715999990178	1	0	0	0	0	0	0
62.169043131052604	0.8203382000010606	2	49	13924.65914	81.25	0.8962873	2	0
62.989381331053664	0.8172674999987066	2	49	13925.34583	100	0.7626350999998976	1	0
63.80664883105237	0.8139950000004319	2	49	13926.21968	93.75	0.8192161000006308	2	0
64.62064383	0.8162873000001127	2	49	13927.10434	87.5	0.8898795999994036	2	0
65.43693113105292	0.8151410999998916	1	0	0	0	0	0	0
66.25207223105281	0.8158223999998881	2	49	13928.68271	87.5	0.8368217999995977	2	0
67.06789463	0.8147920000010345	2	49	13929.50761	87.5	0.8459070000008069	2	0
67.88268663105373	0.8115748999989592	2	0	0	0	0	0	0
68.69426153105269	0.8201464000012493	2	49	13931.17573	87.5	0.8876512999995612	2	0
69.51440793105394	0.8115912999983266	1	49	13931.87865	100	0.7704259999991336	1	0
70.32599923105226	0.8167768	1	49	13932.60568	93.75	0.6858646	1	0
71.14277603105256	0.815152	1	0	0	0	0	0	0
71.95792803	0.8186191999993753	2	49	13934.4225	87.5	0.8707572999992408	2	0
72.77654723105297	0.8183559999997669	2	49	13935.31756	75	0.9471998	2	0
73.59490323105274	0.8157701000000088	2	49	13936.21057	68.75	1.021851700001207	2	0
74.41067333105275	0.8192651999997906	2	49	13936.91565	81.25	0.9111677000000782	2	0
75.22993853105254	0.8209155000004102	1	0	0	0	0	0	0
76.05085403105295	0.8258344999994733	2	49	13938.53692	87.5	0.8922564999993483	2	0
76.87668853105242	0.8173438000012538	2	49	13939.43667	75	0.9661661	2	0
77.69403233105368	0.8227647000003344	1	0	0	0	0	0	0
78.51679703105401	0.8225906999996369	2	49	13941.05433	75	0.9437157999982446	2	0
79.33938773105365	0.8092629000002489	2	49	13941.8941	75	0.9608963999999105	2	0
80.14865063	0.8229457999987062	2	49	13942.64372	81.25	0.9012543999997433	2	0
80.97159643	0.8181318000006286	2	49	13943.33274	100	0.7673276000004989	1	0
81.78972823105323	0.8144006000002264	2	49	13944.32018	81.25	0.9366370999996434	2	0
82.60412883105346	0.8198180999988836	2	49	13945.19477	68.75	0.9968322000004264	2	0
83.42394693105234	0.8192080000007991	2	49	13946.11188	62.5	1.0941239000003407	2	0
84.24315493105314	0.8224638	2	49	13946.71393	87.5	0.8769639999991341	2	0
85.06561873105238	0.8246659000014915	2	49	13947.67878	68.75	1.0193515000009938	2	0
85.89028463105387	0.8224394999997457	2	49	13948.48516	68.75	1.0010644	2	0
86.71272413105362	0.8152248999995209	2	49	13949.23425	81.25	0.9277098999991722	2	0
87.52794903105314	0.8287777000005008	2	49	13950.01417	87.5	0.8924126999991131	2	0
88.35672673105364	0.8236313999987033	2	49	13950.81304	87.5	0.8624982000001182	2	0
89.18035813105234	0.8222036000006483	1	0	0	0	0	0	0
90.00256173105299	0.8263270999996166	2	49	13952.44112	93.75	0.8447489999998652	2	0
90.82888883105261	0.8301384000005783	2	49	13953.19861	100	0.7759087000013096	1	0
91.65902723105319	0.8228555000005144	2	49	13954.11124	87.5	0.8584050999997999	2	0
92.48188273	0.8148574999995617	2	49	13954.87037	93.75	0.7946703999987221	2	0
93.29674023105326	0.8256504999990284	2	49	13955.95038	62.5	1.0598233000000619	2	0
94.12239073105229	0.8242879000008543	2	49	13956.48572	100	0.7695198000001255	1	0
94.94667863105315	0.8166927000002033	2	49	13957.55523	68.75	1.0147383000003174	2	0
95.76337133105335	0.8189996999990399	2	49	13958.24136	87.5	0.8841776999997819	2	0
96.58237103105239	0.8176769000001514	2	49	13959.01571	87.5	0.8395236000014847	2	0
97.40004793105254	0.8167799	2	49	13959.75837	100	0.7645107999996981	1	0
98.21682783	0.8109096999996837	2	49	13960.62432	93.75	0.8136770000000979	2	0
99.02773753105248	0.8145273999998608	1	0	0	0	0	0	0
99.84226493105234	0.8228570999999647	2	49	13962.07958	87.5	0.6435063000008086	1	0
100.6651220310523	0.8156631000001653	2	49	13963.14795	81.25	0.8890171000002738	2	0
101.48078513105247	0.8208028000008198	2	49	13963.87347	93.75	0.7988701000012952	2	0
102.30158793105329	0.8164434999998775	2	49	13964.71363	93.75	0.8182307999995828	2	0
103.11803143105317	0.8176519999997254	2	49	13965.60936	81.25	0.8975133999992977	2	0
103.9356834310529	0.8122266000009404	2	49	13966.61346	62.5	1.0839611000010336	2	0
104.74791003105383	0.8248156999998173	2	49	13967.58255	43.75	1.2408228999993298	2	0
105.57272573105365	0.8251782999996067	2	49	13967.96396	93.75	0.7974178999993455	2	0
106.39790403105326	0.8175785000003088	1	0	0	0	0	0	0
107.21548253105357	0.8180546000003233	2	49	13969.82062	68.75	1.0113263000002917	2	0
108.03353713105389	0.8150819	2	49	13970.55889	81.25	0.9315435	2	0
108.8486190310523	0.8237139000011666	2	49	13971.34178	81.25	0.8993496000002779	2	0
109.67233293105346	0.8228030999998737	2	49	13972.31599	62.5	1.0498422999989998	2	0
110.49513603105333	0.8171480999990308	2	49	13973.03779	75	0.9488409999994474	2	0
111.31228413105237	0.8263231000000815	1	0	0	0	0	0	0
112.13860723105245	0.8166890000011335	2	49	13974.71467	75	0.9822508	2	0
112.95529623105358	0.8150354999997944	2	49	13975.32685	100	0.7777389000002586	1	0
113.77033173105337	0.8116620999990118	2	49	13976.23999	87.5	0.8758419999994658	2	0
114.58199383105239	0.8140325000003941	2	49	13976.96985	93.75	0.7940392000000429	2	0
115.39602633105278	0.8170315000006667	2	49	13978.04717	62.5	1.057329799999934	2	0
116.21305783105345	0.8176770999998553	2	49	13978.54355	93.75	0.7366795999987517	1	0
117.0307349310533	0.8196851	2	49	13979.29196	87.5	0.6674144999997225	1	0
117.85042003105264	0.8099483000005421	1	0	0	0	0	0	0
118.66036833105318	0.8189722000006441	2	49	13981.15103	87.5	0.896853	2	0
119.47934053105382	0.8234291999997367	2	49	13982.10766	68.75	1.0345070999992458	2	0
120.30276973105356	0.8229407999988325	2	49	13983.00707	56.25	1.1104848	2	0
121.12571053105239	0.8218411000016204	1	0	0	0	0	0	0
121.94755163105401	0.8208251999985805	1	0	0	0	0	0	0
122.76837683105259	0.8136365999998816	2	49	13985.22917	87.5	0.8669761000001017	2	0
123.58201343105247	0.8224060000011377	2	49	13986.23148	62.5	1.0556551000008767	2	0
124.40441943105361	0.8142236000003322	2	49	13986.81542	93.75	0.8171889999994164	2	0
125.21864303105394	0.8204803999997239	2	49	13987.64512	93.75	0.8326627999995253	2	0
126.03912343105367	0.8132625	2	49	13988.49623	87.5	0.8632902999997896	2	0
126.8523859310535	0.8122041999995417	2	49	13989.33239	81.25	0.8861918000002333	2	0
127.66459013105305	0.8236933999996836	1	0	0	0	0	0	0
128.48828353105273	0.8182565999995859	2	49	13991.11835	68.75	1.0362519999998767	2	0
129.30654013105232	0.8214628000005177	2	49	13991.87977	75	0.9794199000007211	2	0
130.12800293105283	0.8200135000006412	2	49	13992.7213	68.75	0.9994896000007429	2	0
130.94801643105347	0.8231278000002931	2	49	13993.43719	81.25	0.8953581000005215	2	0
131.77114423105377	0.8188025	2	49	13994.28099	81.25	0.9160304999986693	2	0
132.58994673105371	0.8176102999987052	2	49	13995.07176	87.5	0.8880016000002797	2	0
133.40755703105242	0.8160524000013538	2	49	13996.05641	62.5	1.0550409000006766	2	0
134.22360943105377	0.8160694	2	49	13996.64958	93.75	0.8321555999991688	2	0
135.0396788310536	0.8110450999993191	1	0	0	0	0	0	0
135.85072393105293	0.8152126999993925	2	49	13998.36483	81.25	0.9202943000000232	2	0
136.66593663105232	0.8161841000001004	2	49	13999.17398	81.25	0.9142315000008239	2	0
137.48212073105242	0.8209830000014335	1	0	0	0	0	0	0
138.30310373105385	0.8171541	2	49	14000.84352	75	0.9466072999985045	2	0
139.1202578310531	0.8199593999997887	2	49	14001.59761	87.5	0.8835416000001715	2	0
139.94021723105288	0.8203009999997448	2	49	14002.46891	81.25	0.9348767999999836	2	0
140.76051823105263	0.8148454000001948	2	49	14003.35873	68.75	1.0043973000010737	2	0
141.57536363105282	0.8215608999998949	2	49	14004.16776	68.75	0.9985856000002968	2	0
142.39692453105272	0.8201265999996394	2	49	14005.05899	62.5	1.0682541000005585	2	0
143.21705113105236	0.8207108000005974	2	49	14005.80978	68.75	0.9989149000011821	2	0
144.03776193105296	0.8131708000000799	2	49	14006.59978	75	0.9682095999996818	2	0
144.85093273105304	0.8218727000003128	2	49	14007.41891	75	0.9741663999993762	2	0
145.67280543105335	0.8258982999996078	2	49	14008.21593	75	0.9493172000002232	2	0
146.49870373105296	0.8149907000006351	2	49	14009.27092	50	1.178402699999424	2	0
147.3136944310536	0.8128422999998293	2	49	14009.74095	87.5	0.8334433999989415	2	0
148.12653673105342	0.8185962999996264	2	49	14010.33916	81.25	0.6188096999994741	1	0
148.94513303105305	0.8187213000001066	2	49	14011.5076	75	0.9686529999999038	2	0
149.76385433105315	0.8256927000002179	2	49	14012.4205	62.5	1.0628335000001243	2	0
150.58954703105337	0.8208613000006153	2	49	14013.20309	68.75	1.0197282999997697	2	0
151.4104083	0.8090737999991688	2	49	14014.00907	68.75	1.0048492999994778	2	0
152.21948213105316	0.8150396	2	49	14014.62174	93.75	0.8084500000004482	2	0
153.03452173105325	0.8146343000007619	2	49	14015.5375	81.25	0.9091671999995015	2	0
153.849156	0.8135660999996617	1	49	14016.36423	81.25	0.9212664999995468	2	0
154.66272213105367	0.8078722999998718	2	49	14017.30112	62.5	1.0445842999997694	2	0
155.47059443105354	0.8169624999991356	1	0	0	0	0	0	0
156.28755693105268	0.8066190000008646	1	49	14018.85957	75	0.9781999999995605	2	0
157.09417593105354	0.8158738000001904	2	49	14019.54018	87.5	0.8521872999990592	2	0
157.91004973105373	0.8168304999999236	2	49	14020.49318	75	0.9893191	2	0
158.72688023105366	0.8178566999995383	2	49	14021.1778	87.5	0.8571123000001535	2	0
159.5447369310532	0.8297292999995989	2	49	14022.24738	56.25	1.1088329	2	0
160.3744662310528	0.8230634000010468	2	49	14023.0081	68.75	1.0398242999999638	2	0
161.19752963105384	0.8181820999998308	2	49	14023.74717	75	0.9558301999986725	2	0
162.01571173105367	0.8160504999996192	2	49	14024.55637	75	0.9468433000001824	2	0
162.8317622310533	0.8170626999999513	2	49	14025.3548	81.25	0.9292217000001983	2	0
163.64882493105324	0.8154911000001448	2	49	14026.20362	75	0.9609830999997939	2	0
164.4643160310534	0.8111661999992066	2	49	14026.98003	81.25	0.9219049000002997	2	0
165.2754822310526	0.8231168000002071	1	49	14027.7615	87.5	0.8922099000010348	2	0
166.0985990310528	0.8086806999999681	2	49	14028.73444	62.5	1.0420242000000144	2	0
166.90727973105277	0.8137919000000693	2	49	14029.47953	75	0.9784362999998848	2	0
167.72107163105284	0.8158713	2	49	14030.14556	93.75	0.8306771999996272	2	0
168.5369429	0.8112422999984119	2	49	14031.05576	81.25	0.9250071999995271	2	0
169.3481852310524	0.8250024000008125	2	49	14031.85424	81.25	0.9122444	2	0
170.17318763105322	0.8167051999989781	2	49	14032.7028	81.25	0.9358018	2	0
170.9898928310522	0.8163257	1	0	0	0	0	0	0
171.80621853105367	0.8169918000003236	2	49	14034.3109	81.25	0.9108653	2	0
172.6232103	0.8138483999991877	2	49	14035.2007	75	0.9836801999990712	2	0
173.43705873105318	0.8214592000003904	2	49	14036.07097	68.75	1.0400955000004615	2	0
174.25851793105358	0.8263054999988526	1	0	0	0	0	0	0
175.08482343105243	0.8194308000001911	2	49	14037.70289	68.75	1.0242572000006476	2	0
175.90425423105262	0.8177903	2	49	14038.57297	62.5	1.074898700000631	2	0
176.72204453105223	0.8163158000006661	2	49	14039.35795	68.75	1.0420916000002762	2	0
177.5383603310529	0.8218610999992961	1	0	0	0	0	0	0
178.3602214310522	0.8217663000013999	2	49	14041.006	62.5	1.0519633000003523	2	0
179.1819877310536	0.8307328999999299	2	49	14041.85805	62.5	1.0822501000002376	2	0
180.01272063105353	0.8204845000000205	2	49	14042.58935	75	0.9828180999993492	2	0
180.83320513105355	0.8235568999989482	2	49	14043.48018	62.5	1.0531599999994796	2	0
181.6567620310525	0.8141732000003685	1	0	0	0	0	0	0
182.47093523105286	0.8131885000002512	2	49	14045.1882	56.25	1.1234531000009156	2	0
183.2841237310531	0.8205498999996053	2	49	14046.01606	56.25	1.1381213999993633	2	0
184.10467363105272	0.8161680000011984	2	49	14046.74598	62.5	1.0474921000004542	2	0
184.92084163105392	0.8147320999996737	2	49	14047.4072	81.25	0.8925463999985368	2	0
185.7355737310536	0.8163451999989775	2	49	14048.18518	87.5	0.8557915	2	0
186.55191893105257	0.8222502000007808	2	49	14049.11959	75	0.9738589999997203	2	0
187.37416913105335	0.8288892999989912	2	49	14050.11824	56.25	1.1502635	2	0
188.20305843105234	0.8264014000014868	2	49	14050.8901	62.5	1.0932313000012073	2	0
189.02945983105383	0.8209552999996959	2	49	14051.6598	68.75	1.036528399999952	2	0
189.85041513105352	0.819139	2	49	14052.50739	62.5	1.0631658999991487	2	0
190.6695541310528	0.8238213	2	49	14053.39652	56.25	1.1331559000009293	2	0
191.4933754310532	0.8204294999995909	2	49	14054.23926	50	1.1520731999989948	2	0
192.3138049310528	0.8199853999994957	2	49	14055.07049	50	1.1628720999997313	2	0
193.1337903310523	0.8206829999999172	2	49	14055.7666	68.75	1.0389981000007538	2	0
193.9544733310522	0.8165336000001844	1	0	0	0	0	0	0
194.7710069310524	0.8152110999999422	1	0	0	0	0	0	0
195.58621803105234	0.8138054000010015	2	49	14058.09576	81.25	0.9157346000010875	2	0
196.40002343105334	0.8286709999993036	2	49	14058.88753	87.5	0.8936962999996467	2	0
197.22869443105265	0.8133967	2	49	14059.77952	75	0.9570182000006753	2	0
198.0420911310539	0.8253291999990324	1	0	0	0	0	0	0
198.86742033105293	0.8234317000005831	2	49	14061.47348	68.75	1.0122467000001052	2	0
199.6908520310535	0.8194965000002412	2	49	14062.3996	56.25	1.1149325999995199	2	0
200.51034853105375	0.8196793999995862	2	49	14063.04397	81.25	0.9398122000002331	2	0
201.33002793105334	0.8222805999994307	2	49	14063.79565	87.5	0.8718128000000434	2	0
202.15230853105277	0.8171070999997028	2	49	14064.67971	81.25	0.9335898000008456	2	0
202.96941563105247	0.8173904000013863	2	49	14065.49508	81.25	0.9318478000004689	2	0
203.78680603105386	0.8175436000001355	2	49	14066.34081	75	0.9601877999994031	2	0
204.6043496	0.8283828999992693	2	49	14067.22271	68.75	1.0245488999989902	2	0
205.43273253105326	0.8203997000000527	2	49	14068.06677	68.75	1.040227600000435	2	0
206.2531322310533	0.8167584999991959	2	49	14068.67488	93.75	0.8279376999998931	2	0
207.0698907310525	0.8223307999996905	2	49	14069.45549	100	0.7917831000013393	1	0
207.8922215310522	0.8186255000000529	2	49	14070.55196	62.5	1.0659301000014239	2	0
208.71084703105225	0.8210387000017363	1	0	0	0	0	0	0
209.5318857	0.8289014999991196	2	49	14072.02732	81.25	0.9016248999996606	2	0
210.3607872310531	0.8286936999993486	2	49	14072.82295	87.5	0.8683469	2	0
211.18948093105246	0.8197555000006105	2	49	14073.78809	68.75	1.0047972000011214	2	0
212.00923643105307	0.8206611999994493	2	49	14074.56023	75	0.9571799999994255	2	0
212.82989763105252	0.8213769	2	49	14075.44869	68.75	1.0249806000010722	2	0
213.6512745310538	0.8221264	2	49	14076.16467	81.25	0.9195784999992611	2	0
214.4734009310523	0.8228870000002644	2	49	14077.09708	68.75	1.029871100001401	2	0
215.29628793105258	0.8170356999999058	2	49	14077.85451	75	0.9644066000000748	2	0
216.11332363105248	0.8178528000007645	2	49	14078.71207	68.75	1.004938400001265	2	0
216.93117643105325	0.8215080999998463	2	49	14079.57523	68.75	1.050238600000739	2	0
217.7526845310531	0.8269433999994362	2	49	14080.33591	75	0.9894091000005574	2	0
218.57962793105253	0.8153135000011389	2	49	14081.18557	68.75	1.0121304000003875	2	0
219.39494143105367	0.8125529	2	49	14082.08412	56.25	1.0953620000000228	2	0
220.20749433105266	0.8180014000008669	2	49	14082.98419	50	1.182887799999662	2	0
221.02549573105352	0.8167801999989024	2	49	14083.67579	62.5	1.0564857999997912	2	0
221.84227593105243	0.8174208000000363	2	49	14084.39166	75	0.9555763000007573	2	0
222.65969673105246	0.8185404000014387	2	49	14085.30732	62.5	1.053811300000234	2	0
223.4782371310539	0.8211513999995077	2	49	14086.01955	75	0.9474989999998797	2	0
224.2993885310534	0.8217678999990312	2	49	14087.05142	50	1.1582177000000229	2	0
225.12115643105244	0.8214961000012408	1	0	0	0	0	0	0
225.94265253105368	0.8126240999990841	2	49	14088.46951	81.25	0.9330475999995542	2	0
226.75527663105277	0.8232557999999699	2	49	14089.28393	81.25	0.9348430999998527	2	0
227.57853243105274	0.8165977000007842	2	49	14090.30862	56.25	1.136275700000624	2	0
228.39513013105352	0.8201805	2	0	0	0	0	0	0
229.2153106310525	0.8267836000013631	2	49	14091.62964	93.75	0.8205128000008699	2	0
230.04209423105385	0.8113878999993176	2	49	14092.71149	62.5	1.075578799998766	2	0
230.85348213105317	0.8228404999990744	2	49	14093.44479	68.75	0.9974958000002516	2	0
231.67632263105224	0.8135473000002094	2	49	14094.14343	87.5	0.8732975000002625	2	0
232.48986993105245	0.8240099000013288	2	49	14094.97861	87.5	0.8949229999998352	2	0
233.31387983105378	0.8270254999988538	2	49	14095.87899	75	0.9712996999987809	2	0
234.14090533105264	0.8190205999999307	2	49	14096.52574	93.75	0.7910217999997258	2	0
234.95992593105257	0.8170466000010492	2	49	14097.4007	87.5	0.8469615000012709	2	0
235.77697253105362	0.8222827999998117	2	49	14098.12977	100	0.7589864000001398	1	0
236.59925533105343	0.815442	2	49	14098.90663	93.75	0.7135670999996364	1	0
237.4146973310526	0.8180752999996912	2	49	14099.99668	75	0.9881724000006216	2	0
238.23277263105228	0.8287909999999101	2	49	14100.66114	93.75	0.8345513000003848	2	0
239.0615636310522	0.8273682000017288	2	49	14101.55983	81.25	0.9044557	2	0
239.88893183105392	0.8172354	2	49	14102.35036	87.5	0.8676126999998814	2	0
240.70616723105377	0.8212434999986726	2	49	14103.23317	81.25	0.9331932999994024	2	0
241.52741073105244	0.8216468999999051	2	49	14104.1142	75	0.9929737000002206	2	0
242.34905763105235	0.8346119000016188	2	49	14104.81303	87.5	0.8701557000003959	2	0
243.18366953105397	0.8162161000000197	2	49	14105.60893	93.75	0.8314528999999311	2	0
243.99988563105398	0.8172072999986995	1	0	0	0	0	0	0
244.81709293105268	0.8130474999998114	2	49	14107.29098	87.5	0.8800745999997162	2	0
245.6301404310525	0.8211123000000953	2	49	14108.03807	93.75	0.8141187000001082	2	0
246.4512527310526	0.8230842000011762	2	49	14108.81356	100	0.7684915999998339	1	0
247.27433693105377	0.8246509000000515	2	49	14109.77426	81.25	0.9061081999989256	2	0
248.09898783105382	0.8204323999998451	1	0	0	0	0	0	0
248.91942023105366	0.8273074999997334	2	49	14111.48688	75	0.9736518999998225	2	0
249.7467277310534	0.8160929999994551	1	49	14112.29016	75	0.9496160999988206	2	0
250.56282073105285	0.8212363	1	49	14112.79019	81.25	0.6335579999995389	1	0
251.3840570310531	0.8200527999997576	2	49	14113.7812	93.75	0.8033319999995001	2	0
252.20410983105285	0.8125025000008463	2	0	0	0	0	0	0
253.0166123310537	0.8101534999987052	2	49	14115.44926	87.5	0.838833	2	0
253.8267658310524	0.8185791000014433	2	49	14116.44419	68.75	1.0236112000002322	2	0
254.64534493105384	0.8214005999998335	2	49	14117.08147	87.5	0.8423177999993641	2	0
255.46674553105368	0.824759	2	49	14117.96046	81.25	0.8999023999986093	2	0
256.29150453105285	0.8307550000008632	2	49	14118.74953	87.5	0.8642103000001953	2	0
257.1222595310537	0.8182789999991655	2	49	14119.59686	87.5	0.8807875000002241	2	0
257.9405385310529	0.8277878000008059	2	49	14120.4284	87.5	0.8940452000006189	2	0
258.7683263310537	0.8197651999998925	2	49	14121.48553	56.25	1.1233937999986665	2	0
259.5880915310536	0.8222322000001441	2	49	14121.96289	100	0.7809911000003922	1	0
260.4103237310537	0.8269837999996525	2	49	14122.9866	75	0.9824621999996452	2	0
261.2373075310534	0.8145996999992349	2	49	14123.80464	75	0.9735213000003569	2	0
262.0519072310526	0.8155113000011625	2	49	14124.56774	81.25	0.9220170999997208	2	0
262.8674185310538	0.8213102999998227	1	0	0	0	0	0	0
263.6887288310536	0.8197952999998961	2	49	14126.22525	81.25	0.9427102999998169	2	0
264.5085241310535	0.8149806999990687	2	49	14126.93767	93.75	0.8353312999988702	2	0
265.32350483105256	0.8194201000005705	2	49	14127.99867	62.5	1.081357900000512	2	0
266.14292493105313	0.8169770000004064	2	49	14128.72701	75	0.9902743000002374	2	0
266.95990193105354	0.8247546	2	49	14129.5957	68.75	1.0419829999991634	2	0
267.78465653105377	0.8243222000000969	2	49	14130.30143	81.25	0.9229622999991989	2	0
268.60897873105387	0.8183023000001413	2	49	14131.13891	81.25	0.9361153999998351	2	0
269.427281	0.8150127999997494	1	49	14131.97778	75	0.9566881999999168	2	0
270.24229383105376	0.8233414999995148	1	0	0	0	0	0	0
271.0656353310533	0.8196974000002228	2	49	14133.75771	56.25	1.0982586999998603	2	0
271.8853327310535	0.8179077000004327	2	49	14134.25921	100	0.7800662999998167	1	0
272.7032404310539	0.8129987	2	49	14135.26243	75	0.9653822999989643	2	0
273.5162391310532	0.8191148000005342	2	49	14136.00305	81.25	0.8930017000002408	2	0
274.33535393105376	0.8199475000001257	2	49	14136.94388	68.75	1.0147170000000187	2	0
275.1553014310539	0.8122158999995008	1	0	0	0	0	0	0
275.9675173310534	0.8126293999994232	2	49	14138.46811	81.25	0.9067765999989206	2	0
276.7801467310528	0.8116465	2	49	14139.28145	81.25	0.9074894000004861	2	0
277.5917932310531	0.8150797	2	49	14140.10549	81.25	0.9198809999998048	2	0
278.40687293105293	0.8110794000003807	2	49	14140.87521	87.5	0.8745269000010012	2	0
279.2179523310533	0.8191948999992746	2	49	14141.85115	68.75	1.039388199998939	2	0
280.0371472310526	0.8219666000004509	2	49	14142.70936	62.5	1.0783979000007093	2	0
280.85911383105304	0.8175601000002644	2	49	14143.51167	62.5	1.0587395000002289	2	0
281.6766739310533	0.8228244000001723	2	49	14144.15645	87.5	0.8859647999997833	2	0
282.4994983310535	0.8193155999997543	2	49	14144.94954	87.5	0.8562285	2	0
283.3188139310532	0.8165193000004365	1	0	0	0	0	0	0
284.13533323105366	0.8169376999994711	2	49	14146.72729	68.75	0.9981412999986787	2	0
284.95227093105314	0.8209812000004604	2	49	14147.38628	93.75	0.8401976999994076	2	0
285.7732521310536	0.8173427999990963	2	49	14148.20138	93.75	0.8343162	2	0
286.5905949310527	0.8191588000008778	2	49	14149.09199	81.25	0.9075846	2	0
287.40975373105357	0.8317035999989457	2	49	14150.26599	37.5	1.2624218000000837	2	0
288.2414573310525	0.8175815000013245	2	49	14150.62577	93.75	0.7904975000001286	2	0
289.05903883105384	0.8135872999991989	2	49	14151.6152	75	0.9623483999985183	2	0
289.87262613105304	0.8218773000007786	1	0	0	0	0	0	0
290.6945034310538	0.8192583000000013	2	49	14153.22369	81.25	0.9353736	2	0
291.5137617310538	0.8105170999988331	2	49	14154.11179	68.75	1.0042180999989796	2	0
292.32427883105265	0.8145077999997739	2	49	14154.78996	87.5	0.8718650000009802	2	0
293.1387866310524	0.8202535000000353	2	49	14155.57458	87.5	0.8419845000007626	2	0
293.95904013105246	0.8083631000008609	2	49	14156.56508	68.75	1.012228600000526	2	0
294.7674032310533	0.8203156999989005	2	49	14157.35093	75	0.9897096999993664	2	0
295.5877189310522	0.8178554000005533	2	49	14157.93566	100	0.7541336000012961	1	0
296.4055743310528	0.8147439000003942	2	49	14158.96578	75	0.9663885000009032	2	0
297.22031823105317	0.8234866000002512	2	49	14159.93372	56.25	1.1195857000002434	2	0
298.0438048310534	0.8300006999998004	2	49	14160.49085	87.5	0.8532364999991842	2	0
298.8738055310532	0.8168298000000505	1	0	0	0	0	0	0
299.6906353310533	0.8171870000005583	2	49	14162.26084	75	0.9763889999994717	2	0
300.50782233105383	0.8207942999997613	2	49	14163.2819	50	1.180263099999138	2	0
301.3286166310536	0.8123021	2	49	14163.89202	75	0.9695890999992116	2	0
302.1409187310528	0.8196614000007685	2	49	14164.67912	75	0.9443907000004401	2	0
302.9605801310536	0.8215585	2	49	14165.58282	68.75	1.0284303999997064	2	0
303.7821386310534	0.8138643999991473	2	49	14166.22992	87.5	0.8539705000002868	2	0
304.59600303105253	0.8176204999999754	2	49	14167.26479	62.5	1.0749771000009787	2	0
305.4136235310525	0.8194634999999835	2	0	0	0	0	0	0
306.2330870310525	0.8138221000008343	2	49	14168.31853	68.75	0.4916318000014144	1	0
307.0469091310533	0.8154980999988766	2	49	14169.72909	62.5	1.088373299999148	2	0
307.8624072310522	0.8279030000012426	2	49	14170.60221	56.25	1.1459902000005968	2	0
308.69031023105345	0.8285861000003933	1	49	14171.21924	81.25	0.9351219999989553	2	0
309.51889633105384	0.8177485999985947	2	49	14172.1047	75	0.9919885	2	0
310.33664493105243	0.8247515	2	49	14172.83212	81.25	0.9016662	2	0
311.1613964310527	0.8161292000004323	2	49	14173.65472	81.25	0.8995109999996203	2	0
311.97752563105314	0.8227843999993638	2	49	14174.7584	50	1.1870644999999058	2	0
312.8003100310525	0.8237559000008332	2	49	14175.35733	75	0.9632104000011168	2	0
313.62406593105334	0.8161889999992127	2	49	14176.38923	50	1.1713545000002341	2	0
314.44025493105255	0.8185200000007171	2	49	14176.94829	81.25	0.9142209000001458	2	0
315.25877493105327	0.8189201000004687	2	49	14177.76729	81.25	0.9147056999991037	2	0
316.07769503105374	0.8150267000000895	2	49	14178.74054	62.5	1.0690316000000166	2	0
316.8927217310538	0.8311067999984516	2	49	14179.58264	62.5	1.0961091999997734	2	0
317.7238285310523	0.8238432000016473	1	0	0	0	0	0	0
318.5476717310539	0.8206697999994503	2	49	14181.04955	81.25	0.9080625999995391	2	0
319.3683415310534	0.8247976000002382	2	49	14182.05075	62.5	1.0885985999993864	2	0
320.1931391310536	0.8215309999995952	2	49	14182.78466	75	0.9977114	2	0
321.0146701310532	0.8243705999993836	2	49	14183.40385	93.75	0.7953677000004973	2	0
321.8390407310526	0.8157890000002226	2	49	14184.51122	62.5	1.0783666000006633	2	0
322.6548297310528	0.8147795000004407	2	49	14185.27596	68.75	1.0273156000002928	2	0
323.46960923105325	0.8107665999996243	2	49	14186.19692	56.25	1.1335025	2	0
324.2803758310529	0.8166338	2	49	14186.80064	81.25	0.9264540999993187	2	0
325.0970096310539	0.8155952999986766	1	0	0	0	0	0	0
325.91260493105256	0.8176405000012892	2	49	14188.42375	81.25	0.9173308999997971	2	0
326.73024543105385	0.8214441000000079	2	49	14189.31024	75	0.9861867999989045	2	0
327.55168953105385	0.8119951999997284	2	49	14190.13313	68.75	0.9876232999995409	2	0
328.3636847310536	0.8137174999992567	1	0	0	0	0	0	0
329.17740223105284	0.8233288999999786	2	49	14191.90685	56.25	1.1356374000006326	2	0
330.0007311310528	0.8206186	2	49	14192.53479	81.25	0.9402427999993961	2	0
330.8213497310535	0.8096451999990677	2	49	14193.37769	75	0.9625247000003583	2	0
331.63099493105256	0.8167800000010175	2	49	14194.15698	81.25	0.9321692000012263	2	0
332.4477749310536	0.8234687999993184	2	49	14194.98593	81.25	0.9443424	2	0
333.2712437310529	0.8168877999996766	2	49	14195.90595	68.75	1.040896	2	0
334.08813153105257	0.8142336000000796	2	49	14196.74796	62.5	1.0660121	2	0
334.90236513105265	0.8164035	2	49	14197.46894	75	0.9727644000013242	2	0
335.71876863105354	0.8125652999988233	2	49	14198.3172	68.75	1.004615099998773	2	0
336.53133393105236	0.8166642	2	49	14199.14926	68.75	1.0241187999999966	2	0
337.3479981310538	0.8178174999993644	1	0	0	0	0	0	0
338.1658156310532	0.8167002999998658	2	49	14200.73418	75	0.9745547000002261	2	0
338.98251593105306	0.8174622999995336	2	49	14201.61544	68.75	1.0391108999992866	2	0
339.7999782310526	0.8084146000001056	2	49	14202.29114	81.25	0.8973517000013089	2	0
340.6083928310527	0.8187042	2	49	14202.98917	100	0.7869643000012729	1	0
341.42709703105356	0.8160403000001679	2	49	14203.86115	87.5	0.8402439000001323	2	0
342.24313733105373	0.8256906999995408	2	49	14204.95422	56.25	1.1172709000002214	2	0
343.0688280310533	0.8170172999998613	2	0	0	0	0	0	0
343.88584533105313	0.8179915000000619	2	49	14206.60341	56.25	1.1237555999996403	2	0
344.7038368310532	0.8259503999997833	2	49	14207.27848	75	0.9808333999990282	2	0
345.5297872	0.8107684999995399	2	49	14208.23477	56.25	1.1111695	2	0
346.3405557310525	0.8179141000000527	2	49	14209.06125	56.25	1.126884400000563	2	0
347.15846983105257	0.8251380000001518	2	49	14209.85735	56.25	1.1050648000000365	2	0
347.9836078310527	0.8121110000010958	2	49	14210.5845	68.75	1.0070752999999968	2	0
348.7957188310538	0.8256937999994989	2	49	14211.37358	75	0.9840488999998342	2	0
349.6214126310533	0.8286766999990505	2	49	14212.17648	75	0.9612600000000384	2	0
350.45008933105237	0.8201053000011598	2	49	14213.27353	43.75	1.229623500001253	2	0
351.2701946310535	0.8275972	1	0	0	0	0	0	0
352.09779183105275	0.8266471000006277	2	49	14214.90558	43.75	1.2139741999999387	2	0
352.9244389310534	0.8200020999993285	2	49	14215.69531	50	1.1770627999994758	2	0
353.7444410310527	0.8210484999999608	2	49	14216.30955	75	0.9713013000000501	2	0
354.56548953105266	0.8258681999996043	2	49	14217.10948	75	0.9501779000001989	2	0
355.39135773105227	0.8124784999999974	2	49	14218.04309	62.5	1.057923900001697	2	0
356.20383623105226	0.8229473	2	49	14218.73165	81.25	0.9339979000014864	2	0
357.0267835310533	0.8203061	2	49	14219.75273	56.25	1.1321372999991581	2	0
357.8470896310537	0.8245384	2	49	14220.4475	68.75	1.0065973000000668	2	0
358.67162803105384	0.8178897	2	49	14221.21268	75	0.9472446999989188	2	0
359.48951773105364	0.8160606	2	49	14222.02974	75	0.9464090000001306	2	0
360.30557833105377	0.8154089999989083	1	0	0	0	0	0	0
361.1209873310527	0.8112760000003618	2	49	14223.53799	93.75	0.8231949000000895	2	0
361.93226333105304	0.8158328000008623	2	49	14224.40344	87.5	0.8773660999995627	2	0
362.7480961310539	0.8133640999985801	2	49	14225.24617	81.25	0.9042580999994243	2	0
363.5614602310525	0.8108867999999347	2	49	14226.09677	75	0.9414957999997569	2	0
364.3723470310524	0.8179090000012366	2	0	0	0	0	0	0
365.19025603105365	0.8160229999994044	2	49	14227.68279	81.25	0.8987259999994421	2	0
366.00627903105305	0.8095207999995182	2	49	14228.82415	43.75	1.2240634000008868	2	0
366.8157998310526	0.8157239000011032	2	49	14229.56543	50	1.1558178000013868	2	0
367.6315237310537	0.8161890999999741	2	49	14230.3152	56.25	1.0898613999997906	2	0
368.44771283105365	0.8144077999986621	1	0	0	0	0	0	0
369.2621206310523	0.8245275000008405	2	49	14231.92873	62.5	1.0727976000016497	2	0
370.08664813105315	0.8163182999996934	2	49	14232.54454	87.5	0.86408	2	0
370.90296643105285	0.8155299999998533	1	0	0	0	0	0	0
371.7184964310527	0.8190004999996745	2	49	14234.25504	81.25	0.9427322000010463	2	0
372.5374969310524	0.8233356	2	49	14234.99676	87.5	0.8654464000010194	2	0
373.36083253105244	0.8157202000002144	2	49	14235.98463	68.75	1.0299896000014996	2	0
374.17655273105265	0.8109753000007913	2	49	14236.74948	75	0.9791156999999657	2	0
374.98752803105344	0.8111762	2	49	14237.50359	81.25	0.9222477000002982	2	0
375.7987042310524	0.8194363	2	49	14238.42536	68.75	1.0328476000013325	2	0
376.61814053105263	0.8172403999997186	2	49	14239.45651	43.75	1.2445612999999867	2	0
377.43538093105235	0.8173715000011725	2	49	14240.09044	62.5	1.0612426000006963	2	0
378.2527524310535	0.8137654999991355	2	49	14240.86056	68.75	1.0139984999987064	2	0
379.06651793105266	0.8133008000004338	2	0	0	0	0	0	0
379.8798187310531	0.8200507	2	49	14242.43958	75	0.9659532000005129	2	0
380.69986943105323	0.8259901999990689	2	49	14243.0404	93.75	0.7467149000003701	1	0
381.5258596310523	0.8131871000005049	1	0	0	0	0	0	0
382.3390467310528	0.8148818	2	49	14244.84676	81.25	0.9139023999996425	2	0
383.1539285310537	0.8312718999986828	1	0	0	0	0	0	0
383.98520043105236	0.8160279000003356	2	49	14246.42043	87.5	0.8414133000005677	2	0
384.8012283310527	0.8177652	2	49	14247.38367	75	0.9886301000005915	2	0
385.6189935	0.8180025999990903	2	49	14248.1021	87.5	0.8892898999984027	2	0
386.4369961310531	0.8135629000007611	2	49	14249.02461	68.75	0.9938003000006574	2	0
387.25055903105385	0.8190262999996776	2	49	14249.76586	81.25	0.9214857999995729	2	0
388.06958533105353	0.8190400999992562	2	49	14250.74908	62.5	1.0856805999992503	2	0
388.8886254310528	0.8159508000007918	2	49	14251.49259	68.75	1.0101536000001943	2	0
389.7045762310536	0.8169491999997263	2	49	14252.20055	81.25	0.9021623999997246	2	0
390.5215254310533	0.8224998999994568	1	0	0	0	0	0	0
391.34402533105276	0.8194330999995145	2	49	14253.84166	81.25	0.9038256000003457	2	0
392.1634584310523	0.8151508999999351	2	49	14254.87135	56.25	1.1140773000006448	2	0
392.9786093310522	0.8165881000004447	2	49	14255.494	81.25	0.9215795000000071	2	0
393.79519743105266	0.8169754000009561	2	49	14256.43469	62.5	1.045675700001084	2	0
394.6121728310536	0.8163363999992725	2	49	14257.11306	81.25	0.9070713000000978	2	0
395.4285092310529	0.8140715999998065	2	49	14258.05577	68.75	1.0334524000008969	2	0
396.2425808310527	0.8115307000007306	2	49	14258.8008	75	0.9644024999997782	2	0
397.0541115310534	0.8203720999990765	2	49	14259.60401	75	0.9560853	2	0
397.8744836310525	0.8242050000008021	2	49	14260.45357	75	0.9852785000002768	2	0
398.6986886310533	0.8194375000002765	2	49	14261.33197	68.75	1.0394667000000481	2	0
399.5181261310536	0.8169	2	49	14262.16006	62.5	1.0481203999988793	2	0
400.3350261310534	0.8181255999988934	2	49	14262.93299	68.75	1.004146799999944	2	0
401.1531517310523	0.8184078	2	49	14263.64112	81.25	0.8941573000010976	2	0
401.9715595310536	0.8171415999986493	2	49	14264.36112	93.75	0.7957463000002463	2	0
402.7887011310522	0.8133334000012837	1	0	0	0	0	0	0
403.6020345310535	0.8192552999989857	2	49	14266.14621	75	0.9503681999995024	2	0
404.4212898310525	0.8260067000010167	1	49	14266.86523	87.5	0.8501270000015211	2	0
405.2472965310535	0.8165081999995891	2	49	14267.71834	87.5	0.8772296999995888	2	0
406.0638047310531	0.8142377999993187	2	49	14268.62252	75	0.9649014000005991	2	0
406.8780425310524	0.8296673000004375	2	49	14269.31339	93.75	0.8415332000004128	2	0
407.70770983105285	0.8208006999993813	2	49	14270.18277	87.5	0.8812458000011247	2	0
408.52851053105223	0.8275740000008227	2	49	14270.9365	93.75	0.8141749000005802	2	0
409.35608453105306	0.8191010000009555	2	49	14271.90698	75	0.9570875999997952	2	0
410.1751855	0.8151550999991741	1	0	0	0	0	0	0
410.9903406310532	0.8185182	2	49	14273.39019	93.75	0.8060375000004569	2	0
411.80885883105293	0.8075905	2	49	14274.44133	62.5	1.038660100000925	2	0
412.61644933105345	0.8156006999997771	2	49	14275.27603	62.5	1.065764400000262	2	0
413.4320500310532	0.8211649999993824	2	49	14276.02733	68.75	1.0014695999998366	2	0
414.2532150310526	0.8145033000000694	2	0	0	0	0	0	0
415.0677183310527	0.8193761000002269	2	49	14277.09966	62.5	0.4381325000013021	1	0
415.8870944310529	0.8131441999994422	2	49	14278.3827	81.25	0.9017930999998498	2	0
416.70023863105234	0.818756	2	49	14279.23456	75	0.9405056000014156	2	0
417.5189946310529	0.8182864999998856	2	49	14280.0618	75	0.9489969999995083	2	0
418.3372811310528	0.8243777000006958	2	49	14280.9766	68.75	1.0455050000000483	2	0
419.1616588310535	0.8229456999997637	1	0	0	0	0	0	0
419.98460453105326	0.8162420999997266	2	49	14282.74365	50	1.1652352999990399	2	0
420.8008466	0.8200520000009419	2	49	14283.51781	56.25	1.1231552000008378	2	0
421.62089863105393	0.8262156000000687	2	49	14284.1927	75	0.9779890999998315	2	0
422.4471142	0.8206525999994483	2	49	14284.99553	75	0.9546010999983991	2	0
423.26776683105345	0.8191112000004068	2	49	14285.84786	75	0.9862842999991699	2	0
424.08687803105386	0.8113876999996137	2	49	14286.64381	75	0.9631187999984832	2	0
424.89826573105347	0.8185474000001705	2	49	14287.30977	93.75	0.8176939000004495	2	0
425.71681313105364	0.8144709999996849	2	49	14288.16761	87.5	0.8569869999992079	2	0
426.5312841310533	0.8153001999999105	2	49	14289.07982	75	0.9547187999996822	2	0
427.34658433105324	0.8139551999993273	2	49	14289.93593	68.75	0.9955313999998907	2	0
428.16053953105256	0.8191772999998648	2	49	14290.7949	68.75	1.0405526000013197	2	0
428.97971683105243	0.8125955000014073	2	49	14291.57916	68.75	1.0056287000006705	2	0
429.79231233105384	0.8164916999994603	2	49	14292.42105	68.75	1.034921200000099	2	0
430.6088040310533	0.8164529999994556	2	49	14293.21041	68.75	1.007790899999236	2	0
431.42525703105275	0.8124310000002879	1	0	0	0	0	0	0
432.23768803105304	0.8239016999996238	2	49	14294.80105	75	0.9695525000006455	2	0
433.06158973105266	0.8150502000007691	2	49	14295.62041	75	0.9650079000002734	2	0
433.87663993105343	0.8272753999990528	2	49	14296.46301	75	0.9925573999989865	2	0
434.7039153310525	0.8197924000014609	2	49	14297.42025	56.25	1.1225255999997898	2	0
435.52370773105395	0.8195145999998203	2	49	14298.03913	81.25	0.9216099999994185	2	0
436.34322233105377	0.8135517999999138	2	49	14298.97838	62.5	1.0413472000000183	2	0
437.1567741310537	0.8080981999992218	2	49	14299.68121	81.25	0.9306259999993927	2	0
437.9648723310529	0.8115427	2	49	14300.45628	81.25	0.8975977000009152	2	0
438.77641503105224	0.8154812000011589	2	49	14301.35085	75	0.9806200000002718	2	0
439.5918962310534	0.8200551999998424	2	49	14302.44671	37.5	1.2610045000001264	2	0
440.41195143105324	0.8178955999992468	2	49	14302.84241	93.75	0.8366439999990689	2	0
441.2298470310525	0.8122610000009445	2	49	14303.7403	81.25	0.9166389	2	0
442.04210803105343	0.8138796000002912	2	49	14304.54045	81.25	0.9045287999997527	2	0
442.8559876310537	0.8199346000001242	2	49	14305.31939	87.5	0.8695854999987205	2	0
443.67592223105385	0.8129226000000926	2	49	14306.21778	75	0.9480475999989721	2	0
444.48884483105394	0.8186268999997992	2	49	14307.14559	62.5	1.062933499999417	2	0
445.30747173105374	0.8170367000002443	2	49	14307.92101	68.75	1.019721099999515	2	0
446.1245084	0.8220915999991121	2	49	14308.61638	81.25	0.8980558999992354	2	0
446.9466000310531	0.8118720999991638	2	49	14309.44648	81.25	0.9060695999996824	2	0
447.75847213105226	0.8225753	2	49	14310.15962	93.75	0.8073315000001458	2	0
448.58104743105287	0.8177948000011384	2	49	14311.03339	87.5	0.8585347000007459	2	0
449.3988422	0.8202008999996906	2	49	14311.94653	75	0.9538740999996662	2	0
450.2190431310537	0.8218763999993826	2	49	14312.68224	87.5	0.8693844999997964	2	0
451.0409195310531	0.8198926999994001	2	49	14313.6038	75	0.9690669999999955	2	0
451.8608122310525	0.8118703000000096	2	49	14314.48091	68.75	1.0262818999999581	2	0
452.6726825310525	0.8135203000001638	1	0	0	0	0	0	0
453.48620283105265	0.8152757000007114	2	49	14315.9793	81.25	0.8992809999999736	2	0
454.30147853105336	0.8140982999993867	2	49	14316.76713	87.5	0.8718352	2	0
455.11557683105275	0.8253822000006039	2	49	14317.53075	93.75	0.8213653000002523	2	0
455.94095903105335	0.8120497999989311	2	49	14318.47969	75	0.9449225999996997	2	0
456.7530088310523	0.8170603000016854	1	0	0	0	0	0	0
457.57006913105397	0.8162186	2	49	14320.0904	81.25	0.9265196999986074	2	0
458.3862877	0.8287084000003233	2	49	14320.69572	93.75	0.7156226999995852	1	0
459.21499613105334	0.8194268999995984	2	49	14321.5099	93.75	0.7010933000001387	1	0
460.03442303105294	0.8220715999996173	2	49	14322.47494	87.5	0.8467087999997602	2	0
460.85649463105256	0.8186242	2	49	14323.28042	93.75	0.8301155999997718	2	0
461.6751188310536	0.8194191999991745	2	49	14324.10868	93.75	0.8397502999996505	2	0
462.4945380310528	0.8143875999994634	2	49	14324.97918	81.25	0.8908337	2	0
463.30892563105226	0.8137338000015006	2	49	14325.72641	93.75	0.8236767000016698	2	0
464.12265943105376	0.8160965	2	49	14326.50696	93.75	0.7904858000001695	2	0
464.9387559310526	0.8182465	2	49	14327.35309	93.75	0.8205226000009134	2	0
465.7570024310535	0.8158547000002727	2	49	14328.094	100	0.7431897999995272	1	0
466.57285713105375	0.8165274999992107	2	49	14328.94452	100	0.7778491999997641	1	0
467.38938463105296	0.8135664	2	49	14330.04264	62.5	1.0594481000007363	2	0
468.2029510310531	0.8210719	2	49	14331.15928	25	1.3625176000005013	2	0
469.02402293105297	0.8213789	2	49	14331.59415	75	0.9763180000009015	2	0
469.8454018310531	0.8146388000004663	2	49	14332.45393	68.75	1.0147168000003148	2	0
470.66004063105356	0.8155037	2	49	14333.32433	62.5	1.0704747999989195	2	0
471.47554433105324	0.8144075000000157	2	49	14334.31127	43.75	1.2419147999989946	2	0
472.28995183105326	0.8164940000006027	2	49	14334.75822	87.5	0.8744535000005271	2	0
473.10644583105386	0.8145930999999109	2	49	14335.53333	93.75	0.8330752999991091	2	0
473.9210389310538	0.8134460999990551	2	49	14336.45368	75	0.9388330999991013	2	0
474.7344850310528	0.8212705000005371	2	49	14337.42757	56.25	1.0992777000010392	2	0
475.55575553105336	0.8192349000000831	2	0	0	0	0	0	0
476.37499043105345	0.8218607999988308	2	49	14338.91155	81.25	0.9427479000005405	2	0
477.1968512310523	0.8171211000008043	2	49	14339.92396	56.25	1.1332967000016652	2	0
478.0139723310531	0.8124043999996502	2	0	0	0	0	0	0
478.82637673105273	0.8176229000000603	2	49	14341.19805	100	0.7778648000003159	1	0
479.6439996310528	0.8194542000001093	2	49	14342.09012	87.5	0.8523127000007662	2	0
480.4634538310529	0.8187434000010398	2	49	14342.99567	81.25	0.9384079999999813	2	0
481.28219723105394	0.8139893	1	0	0	0	0	0	0
482.0961865310528	0.8132808	2	49	14344.74308	62.5	1.0530844000004436	2	0
482.90946733105375	0.8178932999999233	2	49	14345.52796	68.75	1.024680200000148	2	0
483.72736063105367	0.8153188999986014	2	49	14346.32882	68.75	1.0076517999987118	2	0
484.5426795310523	0.8172088000010262	2	0	0	0	0	0	0
485.3598883310533	0.8131436000003305	2	49	14347.38337	62.5	0.4296734	1	0
486.17303193105363	0.8177976999995735	1	49	14348.25774	68.75	0.49089289999938046	1	0
486.9908296310532	0.8120166999997309	2	49	14349.44616	87.5	0.8615217999995366	2	0
487.80284633105293	0.8216045000008307	2	49	14350.39684	68.75	1.000185999999303	2	0
488.62445083105376	0.8159029999987979	2	49	14351.20482	75	0.9865562999984832	2	0
489.44035383105256	0.8209486000014294	1	0	0	0	0	0	0
490.2613024	0.8200362999996287	2	49	14352.86207	68.75	1.0069509999993898	2	0
491.0813387310536	0.8218163999990793	2	49	14353.70639	68.75	1.0312407999990683	2	0
491.9031551310527	0.8171469999997498	2	49	14354.61904	56.25	1.1220749000003707	2	0
492.72030213105245	0.8170506000005844	2	0	0	0	0	0	0
493.53735273105303	0.8190312999995513	2	49	14356.11735	75	0.9861875000005966	2	0
494.3563840310526	0.8136336999996274	2	49	14357.06812	56.25	1.1179222999999183	2	0
495.1700177310522	0.8171322000016517	2	49	14357.6701	81.25	0.9062686000015674	2	0
495.98714993105386	0.8131059999996069	2	49	14358.44504	87.5	0.8640793999984453	2	0
496.80025593105347	0.8200780999995914	2	49	14359.46512	62.5	1.0710505999995803	2	0
497.62033403105306	0.8184216000008746	2	49	14360.09637	87.5	0.8822285	2	0
498.43875563105394	0.8160132999983034	2	49	14361.07817	62.5	1.0456006999993406	2	0
499.25476893105224	0.8158453	2	49	14361.74997	81.25	0.9013877000015782	2	0
500.0706142310537	0.8176625	2	49	14362.57446	81.25	0.9100347	2	0
500.88827673105334	0.8138055	2	49	14363.29005	93.75	0.8079579999994166	2	0
501.7020822310533	0.8187732000005781	2	49	14364.23435	81.25	0.9384578999997757	2	0
502.52085543105386	0.8132189999996626	2	49	14365.00674	81.25	0.8920706999997492	2	0
503.3340744310535	0.8285216999993281	2	49	14366.05372	56.25	1.125828399999591	2	0
504.16259613105285	0.8247305000004417	2	49	14366.63238	87.5	0.8759726999996928	2	0
504.9873266310533	0.8224690000006376	2	0	0	0	0	0	0
505.80979563105393	0.8125857999984873	1	0	0	0	0	0	0
506.6223814310524	0.8182845999999699	2	49	14369.21734	68.75	1.001143299999967	2	0
507.4406660310524	0.8232649000001402	2	49	14369.82891	93.75	0.7944282000007661	2	0
508.2639309310525	0.8127995	2	49	14370.81589	75	0.9581462000005558	2	0
509.0767304310539	0.8129641	2	49	14371.75168	62.5	1.0811422999995557	2	0
509.88969453105346	0.8127682	2	49	14372.52764	62.5	1.0441315999996732	2	0
510.70246273105295	n/a	0	0	0	0	0	0	0