onset	duration	cue	constant1	timestamp	stimulus_coherence	response_time	response	constant2
0.0677366	0.7995755998417735	2	49	4045584.153	87.5	0.8367021000012755	2	0
0.8673121999017894	0.7982144001871347	2	49	4045584.892	93.75	0.7758865999057889	2	0
1.6655266000889242	0.7974363998509943	1	0	0	0	0	0	0
2.4629629999399185	0.7978118001483381	2	49	4045586.425	93.75	0.7125992001965642	1	0
3.2607748000882566	0.7988917999900877	1	49	4045587.216	93.75	0.7065586000680923	1	0
4.059666600078344	0.7984519000165164	1	49	4045588.029	93.75	0.7205757000483572	1	0
4.858118500094861	0.7981107998639345	2	49	4045588.973	87.5	0.8662092997692525	2	0
5.656229299958795	0.8008611998520792	1	0	0	0	0	0	0
6.4570904998108745	0.8007541000843048	2	49	4045590.574	87.5	0.8674727003090084	2	0
7.257844599895179	0.7999130003154278	2	49	4045591.343	87.5	0.8361419001594186	2	0
8.057757600210607	0.7996450997889042	1	0	0	0	0	0	0
8.857402699999511	0.7986909998580813	2	49	4045592.458	50	0.35209000017493963	1	0
9.656093699857593	0.8014976000413299	2	49	4045593.683	93.75	0.7774273003451526	2	0
10.457591299898922	0.7982324003241956	2	49	4045594.441	100	0.7341984	1	0
11.255823700223118	0.8005398996174335	2	49	4045595.273	100	0.7682389998808503	1	0
12.056363599840552	0.8002647003158927	2	49	4045596.087	93.75	0.7819819999858737	2	0
12.856628300156444	0.7997014001011848	2	49	4045597.003	81.25	0.8978482000529766	2	0
13.65632970025763	0.7980834	2	49	4045597.663	100	0.7575063998810947	1	0
14.454413100145757	0.7994260000996292	2	49	4045598.477	93.75	0.7740956000052392	2	0
15.253839100245386	0.8014816	1	0	0	0	0	0	0
16.055320700164884	0.7988764997571707	1	49	4045600.163	87.5	0.8584088999778032	2	0
16.854197199922055	0.7995114	2	49	4045600.759	87.5	0.6557495999149978	1	0
17.65370859997347	0.7991384998895228	2	49	4045601.525	87.5	0.6220891000702977	1	0
18.452847099862993	0.7999390000477433	2	49	4045602.506	93.75	0.8039581002667546	2	0
19.252786099910736	0.7993252999149263	2	49	4045603.238	100	0.7360824001953006	1	0
20.052111399825662	0.7988529000431299	2	49	4045603.957	87.5	0.6559043	1	0
20.850964299868792	0.7997743003070354	2	49	4045604.904	93.75	0.8039401001296937	2	0
21.650738600175828	0.8015965996310115	2	49	4045605.746	87.5	0.8461567997001112	2	0
22.45233519980684	0.7981571001000702	2	49	4045606.446	100	0.7445532004348934	1	0
23.25049229990691	0.8003034	2	49	4045607.229	100	0.7293273000977933	1	0
24.050795699935406	0.7996563999913633	2	49	4045608.133	87.5	0.8335453001782298	2	0
24.85045209992677	0.8000684999860823	2	49	4045609.077	68.75	0.9775461000390351	2	0
25.650520599912852	0.7989946999587119	2	49	4045609.666	100	0.7667404003441334	1	0
26.449515299871564	0.7996851000934839	1	0	0	0	0	0	0
27.249200399965048	0.7989400001242757	2	49	4045611.314	93.75	0.8155952002853155	2	0
28.048140400089324	0.801291	2	49	4045611.993	93.75	0.6958869998343289	1	0
28.849431400187314	0.7986287996172905	2	49	4045612.817	93.75	0.7185688996687531	1	0
29.648060199804604	0.7987895	2	49	4045613.569	93.75	0.6720571001060307	1	0
30.446849700063467	0.7993156001903117	1	0	0	0	0	0	0
31.24616530025378	0.8002701997756958	2	49	4045615.16	87.5	0.6650193999521434	1	0
32.046435500029474	0.7975681000389159	2	49	4045615.996	93.75	0.7007514000870287	1	0
32.84400360006839	0.7996714	2	49	4045616.765	93.75	0.6721610999666154	1	0
33.64367499994114	0.7994936001487076	1	0	0	0	0	0	0
34.44316860008985	0.7991279000416398	2	49	4045618.405	93.75	0.7129758	1	0
35.24229650013149	0.7988191996701062	2	49	4045619.244	100	0.7530209999531507	1	0
36.041115699801594	0.7990924003534019	2	49	4045620.037	100	0.7472292	1	0
36.840208100154996	0.8013589000329375	2	49	4045620.897	93.75	0.8081700997427106	2	0
37.64156700018793	0.7997306999750435	2	49	4045621.644	100	0.7537893	1	0
38.44129770016298	0.7983152996748686	2	49	4045622.634	75	0.9432743000797927	2	0
39.239612999837846	0.7998981000855565	2	49	4045623.224	100	0.7354030003771186	1	0
40.0395111	0.7991487002000213	1	0	0	0	0	0	0
40.83865980012342	0.7971994997933507	2	49	4045624.945	87.5	0.8574946997687221	2	0
41.635859299916774	0.7976222	2	49	4045625.617	100	0.7316862000152469	1	0
42.43348150001839	0.7978980001062155	2	49	4045626.355	93.75	0.6730185002088547	1	0
43.2313795	0.7993695000186563	2	49	4045627.261	93.75	0.7811072999611497	2	0
44.03074900014326	0.8021804997697473	2	49	4045627.998	93.75	0.7178416000679135	1	0
44.83292949991301	0.8003378002904356	2	49	4045628.909	87.5	0.8274999000132084	2	0
45.63326730020344	0.8008678997866809	2	49	4045629.719	87.5	0.8367849998176098	2	0
46.43413519999012	0.7990492000244558	2	49	4045630.557	81.25	0.8734511998482049	2	0
47.23318440001458	0.7979123000986874	2	49	4045631.302	87.5	0.8194703999906778	2	0
48.03109670011327	0.7988207000307739	2	49	4045632.142	87.5	0.8617710000835359	2	0
48.82991740014404	0.7985910000279546	2	49	4045632.858	93.75	0.7787669999524951	2	0
49.628508400171995	0.7991708996705711	1	0	0	0	0	0	0
50.427679299842566	0.8002261002548039	2	49	4045634.514	87.5	0.8374567003920674	2	0
51.22790540009737	0.8008073000237346	2	49	4045635.339	87.5	0.8617445998825133	2	0
52.028712700121105	0.7999183000065386	2	49	4045636.143	87.5	0.8651767997071147	2	0
52.82863100012764	0.7993787997402251	2	0	0	0	0	0	0
53.62800979986787	0.7994985999539495	2	0	0	0	0	0	0
54.42750839982182	0.8016119003295898	1	0	0	0	0	0	0
55.22912030015141	0.7992536998353899	2	0	0	0	0	0	0
56.028374	0.7983587002381682	2	49	4045639.843	75	0.5654128999449313	1	0
56.826732700224966	0.7990256999619305	1	0	0	0	0	0	0
57.625758400186896	0.7984895999543369	2	49	4045641.651	93.75	0.7760703000240028	2	0
58.42424800014123	0.7997929998673499	2	49	4045642.409	100	0.7360534998588264	1	0
59.22404100000858	0.8012529001571238	2	49	4045643.14	87.5	0.6667905	1	0
60.02529390016571	0.7996922000311315	2	49	4045643.969	93.75	0.6946081	1	0
60.82498610019684	0.7989372997544706	2	49	4045644.815	100	0.7412316999398172	1	0
61.62392339995131	0.7979301000013947	2	49	4045645.547	93.75	0.6742481	1	0
62.421853499952704	0.7985439002513885	2	49	4045646.337	87.5	0.6660150000825524	1	0
63.22039740020409	0.7990504996851087	2	49	4045647.117	87.5	0.6471507996320724	1	0
64.0194479	0.7997848000377417	2	49	4045647.888	81.25	0.6194247999228537	1	0
64.81923269992694	0.8016408002004027	2	49	4045648.693	87.5	0.6248004999943078	1	0
65.62087350012735	0.7994778999127448	2	49	4045649.459	81.25	0.5893612997606397	1	0
66.42035140004009	0.7988390000537038	2	49	4045650.343	93.75	0.6740465	1	0
67.2191904	0.8000945998355746	2	49	4045651.146	93.75	0.6780314	1	0
68.01928499992937	0.7996163000352681	2	49	4045651.899	87.5	0.6310231001116335	1	0
68.81890129996464	0.8004596000537276	2	49	4045652.692	87.5	0.6244600000791252	1	0
69.61936090001836	0.8000767999328673	2	49	4045653.448	81.25	0.5798720000311732	1	0
70.41943769995123	0.8004856999032199	2	49	4045654.42	100	0.7518171002157032	1	0
71.21992339985445	0.7995360000059009	2	49	4045655.141	87.5	0.6723829000256956	1	0
72.01945939986035	0.8013576003722847	2	49	4045656.033	100	0.7647694000042975	1	0
72.82081700023264	0.8008516998961568	1	0	0	0	0	0	0
73.6216687	0.7992171	2	49	4045657.716	87.5	0.8457998000085354	2	0
74.42088579991832	0.7986375000327826	2	49	4045658.438	100	0.7684721001423895	1	0
75.2195233	0.7994448998942971	2	49	4045659.171	93.75	0.7027699998579919	1	0
76.0189682	0.7992142	2	49	4045659.891	87.5	0.6235314002260566	1	0
76.8181824	0.7998335999436677	2	49	4045660.729	87.5	0.6617121	1	0
77.61801599990577	0.7973846001550555	1	0	0	0	0	0	0
78.41540060006082	0.7994189001619816	2	49	4045662.285	81.25	0.6205692999064922	1	0
79.2148195	0.8011167999356985	2	49	4045663.115	87.5	0.6510961996391416	1	0
80.0159363	0.7984408000484109	2	49	4045664.022	100	0.7567276996560395	1	0
80.81437710020691	0.8008139999583364	2	49	4045665.366	31.25	1.3031231998465955	2	0
81.61519110016525	0.7989646997302771	2	49	4045665.908	62.5	1.0434137997217476	2	0
82.41415579989552	0.7993936999700963	2	49	4045666.534	81.25	0.8704582001082599	2	0
83.21354949986562	0.8010203000158072	2	49	4045667.217	100	0.7540991003625095	1	0
84.01456979988143	0.7996126003563404	2	49	4045668.031	100	0.7670976999215782	1	0
84.81418240023777	0.7989513999782503	2	49	4045668.839	93.75	0.7754591000266373	2	0
85.61313380021602	0.8004303998313844	2	0	0	0	0	0	0
86.4135642	0.7998491	2	49	4045670.512	87.5	0.8492966000922024	2	0
87.21341329999268	0.7990124002099037	2	49	4045671.191	100	0.7282405002042651	1	0
88.01242570020258	0.798722	2	49	4045671.826	75	0.5645379000343382	1	0
88.81114770006388	0.8006564998067915	2	49	4045672.741	93.75	0.6805031998082995	1	0
89.61180419987068	0.7974893003702164	2	49	4045673.558	93.75	0.6969866999424994	1	0
90.40929350024089	0.7988347997888923	2	49	4045674.398	100	0.7396937999874353	1	0
91.20812830002978	0.799624	2	49	4045675.305	87.5	0.8476577000692487	2	0
92.0077523	0.7984856995753944	2	49	4045676.02	100	0.7632596995681524	1	0
92.806238	0.7993319001980126	2	49	4045676.935	81.25	0.8795370003208518	2	0
93.6055699	0.8020883998833597	2	49	4045677.595	100	0.7406760002486408	1	0
94.40765829989687	0.8001447999849916	2	49	4045678.539	81.25	0.8826028001494706	2	0
95.20780309988186	0.799883	1	0	0	0	0	0	0
96.00768609996885	0.7987517002038658	2	49	4045680.025	100	0.7685239999555051	1	0
96.80643780017272	0.8015161999501288	2	49	4045680.904	87.5	0.8486918997950852	2	0
97.60795400012285	0.7988307997584343	2	0	0	0	0	0	0
98.40678479988128	0.7977932002395391	2	0	0	0	0	0	0
99.20457800012082	0.7995786997489631	1	49	4045683.032	81.25	0.5786442998796701	1	0
100.00415669986978	0.8003000002354383	1	49	4045683.99	100	0.7364907003939152	1	0
100.80445670010522	0.7992337001487613	2	49	4045684.741	93.75	0.6872255997732282	1	0
101.60369040025398	0.7997061996720731	2	49	4045685.502	87.5	0.6491988999769092	1	0
102.40339659992605	0.7970381	2	49	4045686.3	87.5	0.6479462999850512	1	0
103.20043470012024	0.7996646999381483	2	49	4045687.084	87.5	0.6347483000718057	1	0
104.00009940005839	0.7984369997866452	2	49	4045687.992	100	0.7427146998234093	1	0
104.79853639984503	0.7976534999907017	2	49	4045688.696	87.5	0.6487396000884473	1	0
105.59618989983574	0.8016297002322972	2	49	4045689.54	93.75	0.6951403999701142	1	0
106.39781960006803	0.7996375998482108	2	49	4045690.311	87.5	0.6637083999812603	1	0
107.19745719991624	0.7986628003418446	2	49	4045691.385	75	0.9389101001434028	2	0
107.99612000025809	0.8000832996331155	2	49	4045692.082	87.5	0.8363965996541083	2	0
108.7962032998912	0.7995176003314555	1	0	0	0	0	0	0
109.59572090022266	0.7987305000424385	2	49	4045693.825	68.75	0.9798005996271968	2	0
110.3944514002651	0.8006466999650002	2	0	0	0	0	0	0
111.1950981002301	0.8002616995945573	2	0	0	0	0	0	0
111.99535979982466	0.7994226003065705	2	0	0	0	0	0	0
112.79478240013123	0.7987855998799205	2	0	0	0	0	0	0
113.59356800001115	0.8001148998737335	2	0	0	0	0	0	0
114.39368289988488	0.8002392002381384	2	0	0	0	0	0	0
115.19392210012302	0.8023669999092817	2	0	0	0	0	0	0
115.9962891000323	0.7995656998828053	2	49	4045700.35	56.25	1.1044989000074565	2	0
116.7958547999151	0.7974343001842499	2	49	4045700.989	75	0.9438455002382398	2	0
117.59328910009935	0.7995358998887241	2	49	4045701.528	93.75	0.6854686997830868	1	0
118.39282499998808	0.7997636999934912	2	49	4045702.132	68.75	0.4899423001334071	1	0
119.19258869998157	0.7996192001737654	2	49	4045703.04	81.25	0.5986277000047266	1	0
119.99220790015534	0.8003002996556461	2	49	4045703.827	81.25	0.5855910000391304	1	0
120.79250819981098	0.8005321002565324	2	49	4045704.683	87.5	0.6417039004154503	1	0
121.59304030006751	0.7987899999134243	2	49	4045705.481	87.5	0.6386866001412272	1	0
122.39183029998094	0.7977066999301314	2	49	4045706.317	93.75	0.6759795001707971	1	0
123.18953699991107	0.7992451000027359	2	49	4045707.101	87.5	0.6625405000522733	1	0
123.9887820999138	0.7996329	2	49	4045707.899	87.5	0.6615141001529992	1	0
124.78841499984264	0.7985343001782894	2	49	4045708.661	87.5	0.6235256004147232	1	0
125.58694930002093	0.8010180001147091	2	49	4045709.461	87.5	0.6250008000060916	1	0
126.38796730013564	0.8002632	2	49	4045710.234	81.25	0.5967711000703275	1	0
127.18823050009087	0.8000734997913241	2	49	4045711.028	81.25	0.5907322000712156	1	0
127.98830399988219	0.7993336003273726	2	49	4045711.758	68.75	0.5207231999374926	1	0
128.78763760020956	0.7979203998111188	2	49	4045712.588	75	0.5511718997731805	1	0
129.58555800002068	0.7984348000027239	2	49	4045713.479	87.5	0.6445103	1	0
130.3839928000234	0.8006342998705804	2	49	4045714.284	87.5	0.6509402999654412	1	0
131.1846271	0.7989302002824843	2	49	4045715.046	81.25	0.6124480003491044	1	0
131.98355730017647	0.8005926	2	49	4045715.832	81.25	0.5998602	1	0
132.78414990007877	0.8013157001696527	2	49	4045716.661	87.5	0.6278352001681924	1	0
133.58546560024843	0.7993928	2	49	4045717.431	81.25	0.5962576996535063	1	0
134.38485840009525	0.8002844001166523	2	49	4045718.212	81.25	0.5783402998931706	1	0
135.1851428002119	0.7988544995896518	2	49	4045718.998	75	0.5641314997337759	1	0
135.98399729980156	0.7987658004276454	2	49	4045720.305	56.25	1.0723285004496574	2	0
136.7827631002292	0.8002821	1	0	0	0	0	0	0
137.5830451999791	0.7999034998938441	2	49	4045721.553	100	0.7214084002189338	1	0
138.38294869987294	0.7995378002524376	2	49	4045722.202	81.25	0.5703400000929832	1	0
139.18248650012538	0.8001059000380337	2	49	4045722.971	75	0.539192	1	0
139.9825924001634	0.8003376997075975	2	49	4045723.718	68.75	0.48679389990866184	1	0
140.7829301	0.8005071999505162	2	49	4045724.663	87.5	0.6315553	1	0
141.58343729982153	0.7985392003320158	2	0	0	0	0	0	0
142.38197650015354	0.7996950997039676	2	49	4045726.689	62.5	1.057785099837929	2	0
143.1816715998575	0.8004946000874043	2	49	4045727.465	62.5	1.0346703003160655	2	0
143.9821661999449	0.7999476999975741	2	49	4045728.204	75	0.9728759001009166	2	0
144.7821138999425	0.7982097999192774	2	49	4045728.727	93.75	0.6958270999602973	1	0
145.58032369986176	0.7996307001449168	2	49	4045729.368	75	0.5391378002241254	1	0
146.37995440000668	0.7975633000023663	2	49	4045730.219	81.25	0.5904423999600112	1	0
147.17751770000905	0.7990158000029624	1	0	0	0	0	0	0
147.9765335	0.7981699001975358	2	49	4045732.059	87.5	0.8333256999030709	2	0
148.77470340020955	0.7982468996196985	1	0	0	0	0	0	0
149.57295029982924	0.8005461003631353	2	49	4045733.583	100	0.7610263000242412	1	0
150.37349640019238	0.7982189	2	49	4045734.335	93.75	0.7130153998732567	1	0
151.17171530006453	0.8000305001623929	2	49	4045735.134	93.75	0.7128200000151992	1	0
151.97174580022693	0.7984686996787786	1	49	4045736.061	87.5	0.8400423997081816	2	0
152.7702144999057	0.8014442003332078	2	49	4045736.745	100	0.7257154	1	0
153.5716587002389	0.7986906999722123	2	49	4045737.76	75	0.9392551998607814	2	0
154.37034940021113	0.7995385997928679	2	49	4045738.503	81.25	0.8834371999837458	2	0
155.169888	0.8000739999115467	2	49	4045739.193	93.75	0.7742579001933336	2	0
155.96996199991554	0.7990896999835968	2	49	4045739.766	75	0.5470350002869964	1	0
156.76905169989914	0.8001799	2	49	4045740.818	93.75	0.8001705002970994	2	0
157.56923160003498	0.7996868002228439	2	49	4045741.731	81.25	0.9127869000658393	2	0
158.36891840025783	0.7994068996049464	2	49	4045742.506	81.25	0.8878209	2	0
159.16832529986277	0.8008936000987887	2	0	0	0	0	0	0
159.96921889996156	0.7987645003013313	2	0	0	0	0	0	0
160.7679834002629	0.8003301997669041	2	0	0	0	0	0	0
161.5683136000298	0.7989329998381436	1	0	0	0	0	0	0
162.36724659986794	0.7990644001401961	2	49	4045746.592	68.75	0.9756738999858499	2	0
163.16631100000814	0.7984918998554349	2	49	4045747.385	68.75	0.9698087000288069	2	0
163.96480289986357	0.7981257000938058	1	49	4045747.937	100	0.7233207002282143	1	0
164.76292859995738	0.7978000002913177	1	49	4045748.497	68.75	0.48502690019086003	1	0
165.5607286002487	0.7977431998588145	2	49	4045749.549	100	0.7391615998931229	1	0
166.3584718001075	0.8002325999550521	1	0	0	0	0	0	0
167.15870440006256	0.7991985999979079	2	49	4045751.272	87.5	0.8644400001503527	2	0
167.95790300006047	0.7992365001700819	2	49	4045751.949	100	0.7425672998651862	1	0
168.75713950023055	0.8002563999034464	2	49	4045752.865	87.5	0.8589577996172011	2	0
169.5573959	0.7994748000055552	2	49	4045753.604	93.75	0.7971732998266816	2	0
170.35687070013955	0.7975167999975383	2	49	4045754.365	100	0.7591691999696195	1	0
171.1543875001371	0.7987743997946382	1	0	0	0	0	0	0
171.95316189993173	0.7949588000774384	2	49	4045756.129	75	0.9263666002079844	2	0
172.74812070000917	0.7994801001623273	2	49	4045756.757	100	0.7603846997953951	1	0
173.5476008001715	0.7993332999758422	1	0	0	0	0	0	0
174.34693410014734	0.7994495998136699	2	49	4045758.305	93.75	0.7094711996614933	1	0
175.1463837	0.7994209001772106	2	49	4045759.056	87.5	0.6609876998700202	1	0
175.94580460013822	0.8004688997752964	2	49	4045759.864	87.5	0.6691672001034021	1	0
176.7462734999135	0.8005117001011968	2	49	4045760.725	100	0.7299693003296852	1	0
177.5467852000147	0.7998089	2	49	4045761.501	93.75	0.7057023998349905	1	0
178.34659409988672	0.8004511999897659	2	49	4045762.288	93.75	0.6919706002809107	1	0
179.14704529987648	0.7988395001739264	1	49	4045763.044	87.5	0.6478699999861419	1	0
179.9458848000504	0.7981599997729063	2	49	4045764.13	75	0.9346778998151422	2	0
180.7440447998233	0.8002007002942264	2	49	4045764.782	93.75	0.7894157003611326	2	0
181.54424550011754	0.7996025998145342	2	49	4045765.583	93.75	0.7901566997170448	2	0
182.34384809993207	0.7976176	1	49	4045766.268	93.75	0.6748557998798788	1	0
183.1414657002315	0.7985189999453723	2	49	4045767.058	87.5	0.6672971998341382	1	0
183.93998470017686	0.7988426	1	49	4045767.927	100	0.737545	1	0
184.73882730025798	0.7983786999247968	2	49	4045768.711	100	0.7227443996816874	1	0
185.53720600018278	0.7987682996317744	1	0	0	0	0	0	0
186.33597429981455	0.7993017002008855	2	49	4045770.26	93.75	0.6747263	1	0
187.13527600001544	0.7988208001479506	2	49	4045771.148	100	0.7634196998551488	1	0
187.9340968001634	0.7980754999443889	2	49	4045771.879	93.75	0.6956698996946216	1	0
188.73217230010778	0.7984107998199761	2	49	4045772.742	100	0.7608424001373351	1	0
189.53058309992775	0.7976579000242054	2	49	4045773.439	87.5	0.6594083001837134	1	0
190.32824099995196	0.8012470002286136	2	49	4045774.715	50	1.1378115001134574	2	0
191.12948800018057	0.7995046996511519	2	49	4045775.164	93.75	0.7850430998951197	2	0
191.92899269983172	0.8022708999924362	1	49	4045776.069	81.25	0.8908274001441896	2	0
192.73126359982416	0.8003890002146363	2	49	4045776.672	93.75	0.6915191002190113	1	0
193.5316526000388	0.8007701002061367	2	49	4045777.429	87.5	0.6479672999121249	1	0
194.33242270024493	0.7995951999910176	2	49	4045778.171	81.25	0.5897466000169516	1	0
195.13201790023595	0.7990350998006761	2	49	4045779.135	100	0.7539436998777092	1	0
195.93105300003663	0.8012859998270869	2	49	4045779.833	87.5	0.6529784998856485	1	0
196.7323389998637	0.7979818000458181	2	49	4045780.65	93.75	0.6691013001836836	1	0
197.53032079990953	0.7983559002168477	2	49	4045781.4	87.5	0.6209998000413179	1	0
198.32867670012638	0.7995462999679148	2	49	4045782.515	75	0.9372491999529302	2	0
199.1282230000943	0.7998122000135481	2	49	4045783.337	75	0.9600881999358535	2	0
199.92803520010784	0.7996672997251153	2	0	0	0	0	0	0
200.72770249983296	0.8016486000269651	2	49	4045784.559	81.25	0.5825126999989152	1	0
201.52935109985992	0.8008734001778066	2	0	0	0	0	0	0
202.33022450003773	0.8004515999928117	1	0	0	0	0	0	0
203.13067610003054	0.8009481001645327	2	0	0	0	0	0	0
203.93162420019507	0.798979	2	49	4045788.394	43.75	1.2136375000700355	2	0
204.73060319991782	0.7983344001695514	2	49	4045788.936	75	0.9559956002049148	2	0
205.52893760008737	0.7985351998358965	2	49	4045789.413	87.5	0.6347047998569906	1	0
206.32747279992327	0.7992732999846339	2	49	4045790.023	62.5	0.4464036002755165	1	0
207.1267460999079	0.7997507001273334	2	49	4045790.929	75	0.5535641	1	0
207.92649680003524	0.7989391000010073	2	49	4045791.992	93.75	0.8162166997790337	2	0
208.72543590003625	0.8000039998441935	2	49	4045792.859	81.25	0.8848700001835823	2	0
209.52543989988044	0.7992279999889433	2	49	4045793.585	93.75	0.8108807001262903	2	0
210.32466789986938	0.7981188003905118	2	49	4045794.263	93.75	0.6895608003251255	1	0
211.1227867002599	0.8003388997167349	2	49	4045795.034	87.5	0.6626046998426318	1	0
211.92312559997663	0.7982461000792682	2	49	4045795.851	93.75	0.6792573998682201	1	0
212.7213717000559	0.8012419999577105	2	49	4045796.683	93.75	0.7126539000310004	1	0
213.5226137000136	0.8002479001879692	2	49	4045797.507	100	0.7357143	1	0
214.32286160020158	0.7983389999717474	2	49	4045798.396	87.5	0.8239273997023702	2	0
215.12120060017332	0.7996999998576939	2	0	0	0	0	0	0
215.92090060003102	0.7996323	2	0	0	0	0	0	0
216.72053290018812	0.7982756998389959	1	0	0	0	0	0	0
217.5188086000271	0.8003174001350999	2	0	0	0	0	0	0
218.3191260001622	0.8022865997627378	2	0	0	0	0	0	0
219.12141259992495	0.8004834000021219	2	49	4045803.263	81.25	0.8921934003010392	2	0
219.92189599992707	0.7970965001732111	2	49	4045803.889	93.75	0.7184941000305116	1	0
220.71899250010028	0.7995457998476923	2	49	4045804.588	81.25	0.6196028999984264	1	0
221.51853829994798	0.7989890002645552	2	49	4045805.465	93.75	0.6972187999635935	1	0
222.31752730021253	0.7991589996963739	2	49	4045806.199	87.5	0.6327353999949992	1	0
223.1166862999089	0.7985165002755821	2	49	4045807.032	87.5	0.6660205000080168	1	0
223.9152028001845	0.7998089999891818	2	49	4045807.912	100	0.7474058996886015	1	0
224.71501180017367	0.8001573998481035	2	49	4045808.63	87.5	0.6658069998957217	1	0
225.51516920002177	0.7992004998959601	2	49	4045809.429	87.5	0.6644045	1	0
226.31436969991773	0.7997548999264836	2	49	4045810.204	87.5	0.6407109000720084	1	0
227.11412459984422	0.7990500000305474	2	49	4045810.95	81.25	0.586683	1	0
227.91317459987476	0.7999066	2	49	4045811.709	75	0.5470229000784457	1	0
228.71308120014146	0.7977347	2	49	4045812.614	87.5	0.6519293999299407	1	0
229.51081589981914	0.8005270999856293	2	49	4045813.523	100	0.7629978000186384	1	0
230.31134299980476	0.8009368004277349	2	49	4045814.513	75	0.9527589003555477	2	0
231.1122798002325	0.7997226999141276	2	49	4045815.127	100	0.7658031997270882	1	0
231.91200250014663	0.7980835996568203	2	49	4045815.972	93.75	0.8114791000261903	2	0
232.71008609980345	0.7995304	2	49	4045816.884	75	0.9248715001158416	2	0
233.50961650023237	0.7990798000246286	2	49	4045817.554	93.75	0.7956353	2	0
234.3086963	0.7997635998763144	2	49	4045818.573	68.75	1.0156049998477101	2	0
235.1084599001333	0.7997153997421265	2	49	4045819.172	93.75	0.8146347999572754	2	0
235.90817529987544	0.7986325002275407	2	49	4045819.899	100	0.7421149001456797	1	0
236.70680780010298	0.7993946997448802	2	49	4045820.8	87.5	0.8446582998149097	2	0
237.50620249984786	0.7978504002094269	1	0	0	0	0	0	0
238.3040529000573	0.7989452	2	49	4045822.413	87.5	0.8603114001452923	2	0
239.10299810022116	0.8000902999192476	2	49	4045823.192	87.5	0.8400934999808669	2	0
239.9030884001404	0.7989222998730838	1	0	0	0	0	0	0
240.7020107000135	0.7980288998223841	2	49	4045824.77	87.5	0.8193552000448108	2	0
241.50003959983587	0.7980871	2	49	4045825.559	93.75	0.8095722002908587	2	0
242.2981266998686	0.7991293999366462	2	49	4045826.332	93.75	0.7844851003028452	2	0
243.09725609980524	0.7987465001642704	2	49	4045827.342	68.75	0.9953759000636637	2	0
243.8960025999695	0.7973374999128282	2	49	4045828.19	62.5	1.0447975001297891	2	0
244.69334009988233	0.7987041999585927	2	49	4045829.152	43.75	1.209941599983722	2	0
245.49204429984093	0.7981935003772378	2	0	0	0	0	0	0
246.29023780021816	0.8002373999916017	2	0	0	0	0	0	0
247.09047520020977	0.8003603997640312	2	0	0	0	0	0	0
247.8908355999738	0.7982875001616776	1	0	0	0	0	0	0
248.68912310013548	0.8010648000054061	2	0	0	0	0	0	0
249.49018790014088	0.8016088	2	0	0	0	0	0	0
250.29179670009762	0.7990844999440014	2	49	4045834.254	93.75	0.712918	1	0
251.09088120004162	0.7972749001346529	1	49	4045834.986	87.5	0.6465607997961342	1	0
251.88815610017627	0.7999445996247232	2	49	4045835.56	62.5	0.42331379977986217	1	0
252.6881007	0.7975472002290189	2	49	4045836.63	93.75	0.6924635004252195	1	0
253.48564790003002	0.7985253999941051	1	49	4045837.41	93.75	0.6749188997782767	1	0
254.28417330002412	0.8017246997915208	2	49	4045838.021	68.75	0.4874797002412379	1	0
255.08589799981564	0.8007134003564715	2	49	4045839.002	87.5	0.6670042001642287	1	0
255.88661140017211	0.8002503998577595	1	0	0	0	0	0	0
256.6868618000299	0.8019739999435842	2	49	4045840.687	100	0.7510767001658678	1	0
257.48883579997346	0.7994432998821139	2	49	4045841.597	87.5	0.8588886000216007	2	0
258.2882790998556	0.8004453000612557	1	0	0	0	0	0	0
259.0887243999168	0.8027985999360681	2	49	4045843.104	100	0.7662631003186107	1	0
259.8915229998529	0.7995955999940634	2	49	4045843.941	93.75	0.8004285003989935	2	0
260.69111859984696	0.7981035001575947	1	0	0	0	0	0	0
261.48922210000455	0.8010860998183489	2	49	4045845.769	62.5	1.0307585000991821	2	0
262.2903081998229	0.7991395001299679	2	49	4045846.312	93.75	0.7726813000626862	2	0
263.08944769995287	0.7998754000291228	2	49	4045847.04	93.75	0.7015360002405941	1	0
263.8893231	0.7997689000330865	2	49	4045847.9	100	0.7617039000615478	1	0
264.6890920000151	0.7998348	2	49	4045848.652	93.75	0.7143994001671672	1	0
265.4889267999679	0.8006026	1	0	0	0	0	0	0
266.28952939994633	0.7985237999819219	2	49	4045850.263	100	0.7244923999533057	1	0
267.08805319992825	0.7996774	2	49	4045851.001	87.5	0.6636208002455533	1	0
267.8877305998467	0.7990198000334203	2	49	4045851.861	100	0.7244353001005948	1	0
268.6867503998801	0.7979165003634989	2	49	4045853.032	56.25	1.096732100006193	2	0
269.4846669002436	0.8007282996550202	2	49	4045853.715	68.75	0.9813836999237537	2	0
270.28539519989863	0.7999321003444493	2	49	4045854.229	93.75	0.6948323003016412	1	0
271.0853273002431	0.8005478996783495	1	49	4045854.941	81.25	0.6069229	1	0
271.88587519992143	0.7981533999554813	2	49	4045855.881	100	0.7457544999197125	1	0
272.6840285998769	0.8009502002969384	2	49	4045856.624	93.75	0.6913450001738966	1	0
273.48497880017385	0.8000647998414934	2	49	4045857.318	81.25	0.5842093	1	0
274.28504360001534	0.7994916001334786	2	49	4045858.132	81.25	0.5984219000674784	1	0
275.0845352001488	0.8008527997881174	2	49	4045859.539	43.75	1.2055708998814225	2	0
275.88538799993694	0.7996891001239419	2	0	0	0	0	0	0
276.6850771000609	0.7998433001339436	2	49	4045860.42	68.75	0.4861377999186516	1	0
277.4849204001948	0.8001049999147654	2	0	0	0	0	0	0
278.2850254001096	0.7976931999437511	1	0	0	0	0	0	0
279.08271860005334	0.8005794999189675	2	0	0	0	0	0	0
279.8832980999723	0.8008882002905011	2	0	0	0	0	0	0
280.6841863002628	0.8009383999742568	2	0	0	0	0	0	0
281.48512470023707	0.7979228999465704	2	0	0	0	0	0	0
282.28304760018364	0.8011010996997356	2	49	4045866.6	62.5	1.0674876999109983	2	0
283.0841486998834	0.7991194999776781	2	49	4045867.131	93.75	0.7977459002286196	2	0
283.88326819986105	0.800329	2	49	4045867.813	93.75	0.6811846001073718	1	0
284.6835972000845	0.7980396999046206	1	49	4045868.557	87.5	0.6248492999002337	1	0
285.4816368999891	0.7994393	2	49	4045869.329	81.25	0.5978963999077678	1	0
286.28107619984075	0.7994238003157079	2	49	4045870.161	87.5	0.6313115	1	0
287.08050000015646	0.7981379	2	49	4045870.942	81.25	0.6122909998521209	1	0
287.87863790011033	0.7958834	2	49	4045871.762	87.5	0.6348731000907719	1	0
288.6745213000104	0.7959513999521732	2	49	4045872.623	93.75	0.6992545002140105	1	0
289.47047269996256	0.7952411002479494	2	49	4045873.413	93.75	0.6932932999916375	1	0
290.2657138002105	0.7949274997226894	2	49	4045874.134	87.5	0.6190104996785522	1	0
291.0606412999332	0.7951418999582529	2	49	4045874.911	81.25	0.6011972	1	0
291.85578319989145	0.7956535001285374	2	49	4045875.715	81.25	0.6100810002535582	1	0
292.6514367	0.7955338000319898	2	49	4045876.686	93.75	0.7852145000360906	2	0
293.4469705	0.7949044997803867	2	49	4045877.454	100	0.7579661998897791	1	0
294.24187499983236	0.7953995000571012	2	49	4045878.15	87.5	0.6593857002444565	1	0
295.03727449988946	0.7965008	2	49	4045878.91	87.5	0.6234198999591172	1	0
295.8337753000669	0.7945997999049723	2	49	4045879.69	81.25	0.6073901997879148	1	0
296.6283750999719	0.7956813001073897	2	49	4045880.45	81.25	0.5727371000684798	1	0
297.4240564000793	0.7954973997548223	2	49	4045881.232	75	0.5590105997398496	1	0
298.2195537998341	0.7955377004109323	2	49	4045881.985	68.75	0.5163233000785112	1	0
299.01509150024503	0.7950854999944568	2	49	4045882.934	93.75	0.6698423000052571	1	0
299.8101770002395	0.7954231998883188	1	49	4045883.762	93.75	0.7029537996277213	1	0
300.6056002001278	0.7963637998327613	2	49	4045884.429	81.25	0.5741691999137402	1	0
301.40196399996057	0.7997467000968754	2	49	4045885.448	93.75	0.7967925001867115	2	0
302.20171070005745	0.8003962999209762	1	49	4045886.213	100	0.7623842000029981	1	0
303.0021069999784	0.7992710000835359	2	49	4045887.037	93.75	0.7855878002010286	2	0
303.80137800006196	0.799518	2	49	4045887.864	93.75	0.8137221001088619	2	0
304.6008959999308	0.8012379	2	49	4045888.651	93.75	0.8012510999105871	2	0
305.40213390020654	0.7994227996096015	2	49	4045889.432	93.75	0.7809108998626471	2	0
306.20155669981614	0.7999280001968145	2	49	4045890.192	100	0.7417664001695812	1	0
307.00148470001295	0.8003043001517653	2	49	4045891.097	87.5	0.8461140999570489	2	0
307.8017890001647	0.8000080999918282	2	49	4045891.84	93.75	0.7895696	2	0
308.60179710015655	0.7984311	2	49	4045892.947	56.25	1.0959457997232676	2	0
309.4002282000147	0.7996188001707196	2	49	4045893.572	75	0.9230701997876167	2	0
310.1998470001854	0.7993274996988475	2	49	4045894.416	75	0.9671666	2	0
310.99917449988425	0.7983610001392663	2	49	4045895.096	87.5	0.8481903001666069	2	0
311.7975355000235	0.7980979001149535	2	49	4045895.811	100	0.7648595999926329	1	0
312.59563340013847	0.7996370997279882	1	49	4045896.636	93.75	0.7909796	2	0
313.39527049986646	0.7997521003708243	2	49	4045897.358	93.75	0.7133643999695778	1	0
314.1950226002373	0.7975587998516858	2	49	4045898.099	87.5	0.6544929998926818	1	0
314.99258140008897	0.7993628000840545	2	49	4045898.908	87.5	0.6669124001637101	1	0
315.7919442	0.7981590996496379	2	49	4045899.661	87.5	0.6205647997558117	1	0
316.59010329982266	0.7991227000020444	1	0	0	0	0	0	0
317.3892259998247	0.8011231003329158	2	49	4045901.264	87.5	0.6260536001063883	1	0
318.1903491001576	0.7998353997245431	2	49	4045902.386	75	0.9468956999480724	2	0
318.99018449988216	0.7985229999758303	2	0	0	0	0	0	0
319.7887075	0.8000607001595199	2	0	0	0	0	0	0
320.5887682000175	0.8009798000566661	2	0	0	0	0	0	0
321.3897480000742	0.7982023	2	0	0	0	0	0	0
322.18795030005276	0.7986388998106122	2	0	0	0	0	0	0
322.9865891998634	0.8002003999426961	1	0	0	0	0	0	0
323.78678959980607	0.7973965001292527	2	0	0	0	0	0	0
324.5841860999353	0.7990351002663374	2	0	0	0	0	0	0
325.38322120020166	0.8006441998295486	2	0	0	0	0	0	0
326.1838654000312	0.7984358998946846	1	0	0	0	0	0	0
326.9823012999259	0.7991830999962986	2	0	0	0	0	0	0
327.7814843999222	0.7994901002384722	2	49	4045911.613	81.25	0.5826346999965608	1	0
328.58097450016066	0.7971238996833563	2	49	4045912.42	81.25	0.5896243997849524	1	0
329.3780984	0.7995368000119925	2	49	4045913.068	62.5	0.44091530004516244	1	0
330.1776352	0.8022162	2	49	4045914.098	87.5	0.6712454999797046	1	0
330.9798514	0.7999173002317548	2	49	4045914.867	87.5	0.6380402999930084	1	0
331.77976870024577	0.8007833999581635	2	49	4045915.622	81.25	0.5935863996855915	1	0
332.58055210020393	0.7979725	2	49	4045916.491	87.5	0.6613808996044099	1	0
333.3785246000625	0.8010347001254559	2	49	4045917.293	87.5	0.6655708998441696	1	0
334.1795593	0.8003368997015059	1	49	4045918.192	100	0.7636212999932468	1	0
334.9798961998895	0.8007358000613749	1	49	4045918.926	93.75	0.6968741002492607	1	0
335.78063199995086	0.7987015000544488	2	49	4045919.772	100	0.7423026002943516	1	0
336.5793335000053	0.7984521999023855	1	0	0	0	0	0	0
337.3777856999077	0.8024340001866221	2	49	4045921.437	93.75	0.8104391000233591	2	0
338.1802197000943	0.7978241997770965	1	49	4045922.237	93.75	0.8078895998187363	2	0
338.9780438998714	0.7981341001577675	2	49	4045922.968	100	0.7408744003623724	1	0
339.7761780000292	0.7989905001595616	2	49	4045923.787	100	0.7614449998363853	1	0
340.57516850018874	0.7992815999314189	2	49	4045924.559	100	0.7349473997019231	1	0
341.37445010012016	0.7993960999883711	2	49	4045925.435	93.75	0.8115950999781489	2	0
342.1738462001085	0.8001113999634981	2	49	4045926.343	81.25	0.9198289001360536	2	0
342.9739576	0.7988010998815298	2	49	4045927.03	93.75	0.8074333001859486	2	0
343.77275869995356	0.7989274002611637	2	49	4045927.792	93.75	0.7698213001713157	2	0
344.5716861002147	0.7986519997939467	2	49	4045928.46	87.5	0.6397645999677479	1	0
345.37033810000867	0.7973316	2	49	4045929.31	93.75	0.6909130997955799	1	0
346.1676697	0.7995214001275599	2	49	4045930.03	81.25	0.6130476002581418	1	0
346.96719110012054	0.8001890000887215	2	49	4045930.971	100	0.7552924999035895	1	0
347.76738010020927	0.7980546997860074	2	49	4045931.77	100	0.7539082998409867	1	0
348.5654347999953	0.7976668998599052	2	49	4045932.533	93.75	0.7186116999946535	1	0
349.3631016998552	0.8013952001929283	2	49	4045933.279	87.5	0.6672798004001379	1	0
350.1644969000481	0.7988406	2	0	0	0	0	0	0
350.9633375	0.8023310997523367	2	0	0	0	0	0	0
351.76566859986633	0.7989118001423776	2	0	0	0	0	0	0
352.5645804000087	0.8003060999326408	1	0	0	0	0	0	0
353.36488649994135	0.7991631	2	49	4045937.154	75	0.5399160999804735	1	0
354.1640496	0.8008672995492816	2	49	4045938.123	93.75	0.7095354995690286	1	0
354.9649168998003	0.7999630002304912	2	49	4045939.01	93.75	0.7961242003366351	2	0
355.7648799000308	0.7988061998039484	2	49	4045939.758	100	0.7437094999477267	1	0
356.56368609983474	0.8016774002462626	2	49	4045940.477	87.5	0.6640751003287733	1	0
357.3653635	0.8001768	2	49	4045941.264	87.5	0.6493063000962138	1	0
358.1655403	0.7992036	2	49	4045941.969	75	0.5549608999863267	1	0
358.9647439001128	0.8008938	2	49	4045942.754	75	0.5399031001143157	1	0
359.7656376999803	0.7991867000237107	2	49	4045943.565	75	0.5500671998597682	1	0
360.5648244	0.7998878001235425	2	49	4045944.439	87.5	0.6248745	1	0
361.36471220012754	0.8009430998936296	1	49	4045945.139	75	0.5253731999546289	1	0
362.16565530002117	0.7999196997843683	2	49	4045946.107	93.75	0.6926787002012134	1	0
362.96557499980554	0.7992605003528297	2	49	4045946.877	87.5	0.6623436002992094	1	0
363.76483550015837	0.7987421997822821	2	49	4045947.662	87.5	0.6477759000845253	1	0
364.56357769994065	0.8001763001084328	2	49	4045948.654	87.5	0.8412819001823664	2	0
365.3637540000491	0.7994884997606277	2	49	4045949.44	87.5	0.8270211000926793	2	0
366.1632424998097	0.7976011000573635	2	49	4045950.118	93.75	0.7057523000985384	1	0
366.9608435998671	0.8014079001732171	2	49	4045950.967	100	0.7572654001414776	1	0
367.7622515000403	0.8004239001311362	2	49	4045951.722	93.75	0.7110485997982323	1	0
368.56267540017143	0.7985630999319255	1	0	0	0	0	0	0
369.36123850010335	0.7981850998476148	1	49	4045953.402	93.75	0.7917486000806093	2	0
370.15942359995097	0.8010832001455128	2	49	4045954.253	87.5	0.8445907002314925	2	0
370.9605068000965	0.8001676	2	49	4045955.237	62.5	1.0275212000124156	2	0
371.7606744002551	0.7991912998259068	2	49	4045955.817	93.75	0.8075820999220014	2	0
372.5598657	0.7985905	1	49	4045956.595	93.75	0.7864749999716878	2	0
373.3584561999887	0.8005590001121163	2	49	4045957.371	100	0.7636575000360608	1	0
374.15901520010084	0.8004151000641286	2	49	4045958.286	81.25	0.8781089000403881	2	0
374.95943030016497	0.7996204998344183	2	49	4045959.06	87.5	0.8517732000909746	2	0
375.7590507999994	0.8011830998584628	2	49	4045960.28	31.25	1.272077600006014	2	0
376.56023389985785	0.7996231000870466	1	0	0	0	0	0	0
377.3598569999449	0.8008481999859214	2	49	4045961.418	93.75	0.8088138001039624	2	0
378.1607051999308	0.7997581	2	49	4045962.238	87.5	0.8287949999794364	2	0
378.96046329988167	0.8014998999424279	2	49	4045962.893	93.75	0.6830663001164794	1	0
379.7619631998241	0.7993751000612974	1	49	4045963.601	81.25	0.5895564001984894	1	0
380.5613382998854	0.7996622	1	49	4045964.568	100	0.7581197000108659	1	0
381.36100050015375	0.7988725998438895	2	49	4045965.322	93.75	0.7124029	1	0
382.15987309999764	0.8021207000128925	2	49	4045966.195	93.75	0.7864695000462234	2	0
382.96199380001053	0.8007058999501169	2	49	4045966.987	93.75	0.7762914998456836	2	0
383.76269969996065	0.7984348000027239	2	49	4045967.605	81.25	0.5936618000268936	1	0
384.5611344999634	0.8002018	2	49	4045968.392	81.25	0.5823395000770688	1	0
385.36133630014956	0.7985696000978351	2	49	4045969.23	81.25	0.6201438996940851	1	0
386.1599059002474	0.7986749997362494	2	49	4045970.043	87.5	0.6339674997143447	1	0
386.95858089998364	0.7996383998543024	2	49	4045971.117	81.25	0.9092259998433292	2	0
387.75821929983795	0.8003226001746953	2	49	4045971.891	81.25	0.8833496002480388	2	0
388.55854190001264	0.8010283000767231	2	49	4045972.669	87.5	0.8613248998299241	2	0
389.35957020008937	0.7976644998416305	1	0	0	0	0	0	0
390.1572347	0.7975937998853624	1	0	0	0	0	0	0
390.95482849981636	0.7987842001020908	2	49	4045974.916	93.75	0.7119644000194967	1	0
391.75361269991845	0.7993546999059618	2	49	4045975.792	93.75	0.7893284000456333	2	0
392.5529673998244	0.7996450001373887	2	49	4045976.555	100	0.7526181000284851	1	0
393.3526123999618	0.7995651001110673	2	49	4045977.335	100	0.7330241999588907	1	0
394.15217750007287	0.7986654997803271	2	49	4045978.112	93.75	0.7103590997867286	1	0
394.9508429998532	0.7982568	2	49	4045978.989	93.75	0.7895633	2	0
395.7490997998975	0.7977749002166092	2	49	4045979.734	100	0.7355610001832247	1	0
396.54687470011413	0.7994324997998774	2	49	4045980.867	62.5	1.0706390999257565	2	0
397.3463072	0.8000444	2	0	0	0	0	0	0
398.1463516000658	0.8002873999066651	2	49	4045982.049	87.5	0.6534886998124421	1	0
398.9466389999725	0.7989944000728428	2	49	4045983.079	81.25	0.8830923000350595	2	0
399.74563340004534	0.8002054002135992	2	49	4045983.877	81.25	0.8823164999485016	2	0
400.54583880025893	0.7994582997635007	2	49	4045984.567	93.75	0.7722407998517156	2	0
401.34529710002244	0.7998600997962058	2	49	4045985.337	100	0.7426585000939667	1	0
402.14515719981864	0.7985382000915706	2	49	4045986.145	100	0.7507782001048326	1	0
402.9436953999102	0.7995645003393292	2	49	4045986.895	93.75	0.7021085	1	0
403.74325990024954	0.8019804	2	49	4045987.629	87.5	0.6372386999428272	1	0
404.54524030024186	0.7987643997184932	2	49	4045988.406	81.25	0.6122021996416152	1	0
405.34400469996035	0.8003756999969482	1	49	4045989.183	81.25	0.5902067	1	0
406.1443803999573	0.7989075002260506	2	49	4045990.304	81.25	0.9111227001994848	2	0
406.94328790018335	0.7982934997417033	2	49	4045991.073	81.25	0.8806385998614132	2	0
407.74158139992505	0.8007467002607882	1	49	4045991.776	93.75	0.7855361001566052	2	0
408.54232810018584	0.7999105998314917	1	49	4045992.558	100	0.7667205999605358	1	0
409.34223870001733	0.7996907001361251	2	49	4045993.253	87.5	0.6622578999958932	1	0
410.14192940015346	0.7992408997379243	2	49	4045994.207	93.75	0.8162839999422431	2	0
410.9411702998914	0.7988594002090394	1	0	0	0	0	0	0
411.7400297001004	0.7989539001137018	2	0	0	0	0	0	0
412.5389836002141	0.8001055996865034	2	0	0	0	0	0	0
413.3390891999006	0.7997234002687037	2	49	4045997.726	50	1.1381997000426054	2	0
414.13881260016933	0.7998373997397721	2	49	4045998.372	68.75	0.9840631000697613	2	0
414.9386499999091	0.7984855999238789	2	49	4045998.96	93.75	0.7719056000933051	2	0
415.7371356	0.7989092003554106	2	49	4045999.774	93.75	0.7882571001537144	2	0
416.5360448001884	0.7990067000500858	2	49	4046000.501	93.75	0.7164352997206151	1	0
417.3350515002385	0.8004353996366262	2	49	4046001.244	87.5	0.6603399999439716	1	0
418.1354868998751	0.7999688000418246	2	49	4046002.128	100	0.7435627	1	0
418.93545569991693	0.7987019000574946	1	49	4046002.973	93.75	0.7886163000948727	2	0
419.7341575999744	0.7987327999435365	2	49	4046003.689	93.75	0.7062198999337852	1	0
420.53289039991796	0.7990204999223351	2	49	4046004.445	87.5	0.662782	1	0
421.3319108998403	0.7983115003444254	2	49	4046005.233	87.5	0.6516312002204359	1	0
422.1302224001847	0.8022904000245035	2	49	4046006.231	87.5	0.8518611998297274	2	0
422.9325128002092	0.7971217	2	49	4046007.067	81.25	0.8851934997364879	2	0
423.72963450010866	0.8006683001294732	2	49	4046007.864	81.25	0.8849788997322321	2	0
424.53030280023813	0.7993812998756766	2	0	0	0	0	0	0
425.3296841001138	0.7997602000832558	1	0	0	0	0	0	0
426.12944430019706	0.7996192998252809	2	0	0	0	0	0	0
426.92906360002235	0.8018567999824882	2	0	0	0	0	0	0
427.73092040000483	0.8008988001383841	2	0	0	0	0	0	0
428.5318192001432	0.8027536999434233	2	0	0	0	0	0	0
429.33457290008664	0.7993398001417518	2	0	0	0	0	0	0
430.1339127002284	0.8009124998934567	2	0	0	0	0	0	0
430.93482520012185	0.7983029996976256	1	0	0	0	0	0	0
431.7331281998195	0.7980766003020108	2	0	0	0	0	0	0
432.5312048001215	0.7978036999702454	2	49	4046016.705	75	0.9248015997000039	2	0
433.32900850009173	0.7998681999742985	2	49	4046017.468	81.25	0.8903517997823656	2	0
434.12887670006603	0.8002951	2	49	4046018.295	81.25	0.9170476999133825	2	0
434.92917180014774	0.8007542998529971	2	49	4046018.972	93.75	0.7936797	2	0
435.72992610000074	0.7998016998171806	2	49	4046019.793	93.75	0.8142293998971581	2	0
436.5297277998179	0.7986177001148462	2	49	4046020.544	100	0.7653106	1	0
437.32834549993277	0.8009776002727449	1	49	4046021.215	87.5	0.6380912000313401	1	0
438.1293231002055	0.7986511997878551	2	49	4046022.286	81.25	0.9072095998562872	2	0
438.92797429999337	0.7990219998173416	2	49	4046022.853	93.75	0.6760133998468518	1	0
439.7269962998107	0.7992011001333594	2	49	4046023.594	81.25	0.6182054001837969	1	0
440.52619739994407	0.8010049001313746	2	49	4046024.425	87.5	0.6497185998596251	1	0
441.32720230007544	0.8005299000069499	2	49	4046025.143	75	0.5671508000232279	1	0
442.1277322000824	0.7987277000211179	2	49	4046026.023	87.5	0.6467446000315249	1	0
442.9264599001035	0.7991752997040749	2	49	4046026.875	93.75	0.6996879000216722	1	0
443.7256351998076	0.7989386999979615	2	49	4046027.75	93.75	0.7754301000386477	2	0
444.52457389980555	0.7982530002482235	2	49	4046028.475	93.75	0.7017537001520395	1	0
445.32282690005377	0.7992446999996901	2	49	4046029.296	100	0.7243552999570966	1	0
446.12207160005346	0.7990041999146342	2	49	4046030.192	87.5	0.8213581000454724	2	0
446.9210757999681	0.8012806000187993	2	49	4046030.874	93.75	0.7042590002529323	1	0
447.7223563999869	0.8014956000261009	2	49	4046031.728	100	0.7569647999480367	1	0
448.523852	0.8017893000505865	2	49	4046032.589	93.75	0.8163670999929309	2	0
449.3256413000636	0.7992964000441134	2	49	4046033.261	93.75	0.6862980998121202	1	0
450.1249377001077	0.8005641000345349	2	49	4046033.943	75	0.5685856998898089	1	0
450.92550180014223	0.7992085	2	49	4046034.9	100	0.7258480000309646	1	0
451.7247103000991	0.8003527000546455	2	49	4046035.653	93.75	0.6796296001411974	1	0
452.52506300015375	0.7991932	2	49	4046036.414	87.5	0.6404021000489593	1	0
453.3242561998777	0.801467	2	49	4046037.21	87.5	0.6364730000495911	1	0
454.12572319991887	0.7990337000228465	2	49	4046038.106	100	0.7311813998967409	1	0
454.9247568999417	0.7998525002039969	1	49	4046038.929	100	0.7557287001982331	1	0
455.7246094001457	0.7988863000646234	2	49	4046039.887	81.25	0.9130587996914983	2	0
456.52349570021033	0.798092	2	49	4046040.597	87.5	0.8241161997430027	2	0
457.3215876999311	0.7995172999799252	2	49	4046041.516	75	0.9455399001017213	2	0
458.12110499991104	0.7990180002525449	2	49	4046042.202	87.5	0.8314205002970994	2	0
458.9201230001636	0.7981825997121632	2	49	4046043.047	81.25	0.8776700999587774	2	0
459.71830559987575	0.8003549999557436	2	49	4046043.744	93.75	0.7763539	2	0
460.5186605998315	0.7985449000261724	2	49	4046044.611	87.5	0.8429701002314687	2	0
461.31720549985766	0.8031958001665771	2	0	0	0	0	0	0
462.12040130002424	0.8003508998081088	2	49	4046046.027	87.5	0.6572198998183012	1	0
462.92075219983235	0.7990733003243804	2	49	4046047.16	68.75	0.9899619002826512	2	0
463.71982550015673	0.7982711000367999	2	49	4046047.731	100	0.7620639996603131	1	0
464.51809660019353	0.7978209997527301	1	49	4046048.437	93.75	0.6698177000507712	1	0
465.31591759994626	0.8006835002452135	2	49	4046049.143	81.25	0.5779643999412656	1	0
466.1166011001915	0.8021891000680625	2	49	4046049.984	81.25	0.6184251	1	0
466.91879020025954	0.8008592999540269	2	49	4046050.909	100	0.7412433996796608	1	0
467.71964950021356	0.7985636997036636	2	49	4046051.752	93.75	0.7835281998850405	2	0
468.5182131999172	0.8000270002521574	1	49	4046052.583	93.75	0.8157147001475096	2	0
469.3182402001694	0.8017719998024404	2	49	4046053.297	100	0.7297817999497056	1	0
470.1200121999718	0.7983412002213299	2	49	4046054.019	87.5	0.6500615999102592	1	0
470.91835340019315	0.8002307000569999	2	49	4046055.066	81.25	0.8986228997819126	2	0
471.71858410025015	0.7977100997231901	2	49	4046055.842	81.25	0.8745616995729506	2	0
472.51629419997334	0.7983685000799596	2	0	0	0	0	0	0
473.3146627000533	0.7995993001386523	2	49	4046057.029	62.5	0.46543839992955327	1	0
474.11426200019196	0.8000614000484347	2	0	0	0	0	0	0
474.9143234002404	0.7996485996991396	2	0	0	0	0	0	0
475.71397199993953	0.7996486001648009	2	0	0	0	0	0	0
476.51362060010433	0.7984956000000238	2	0	0	0	0	0	0
477.31211620010436	0.8001513998024166	2	49	4046061.1	75	0.5390306999906898	1	0
478.1122675999068	0.7993892002850771	2	49	4046062.108	100	0.7464350000955164	1	0
478.91165680019185	n/a	0	49	4046062.725	75	0.5645804000087082	1	0