onset	duration	offset	trial	item	RT	response
55.51480000000001	3.5656010000967058	59.080401000096714	1	att	2.05881430022418	2.0
59.08053740020401	1.9257236002012945	61.0062610004053	1	past	0.838254400063306	5.0
61.0065451003567	1.1348677999339998	62.1414129002907	1	fut	0.70303969969973	5.0
62.14158110040731	3.2479230999014987	65.3895042003088	1	self	0.755089899990708	8.0
65.3896860000633	2.074880500324099	67.4645665003874	1	ppl	0.860456900205463	3.0
67.46474780002161	2.0159191000275882	69.4806669000492	1	arou	0.869060800410807	7.0
69.48084620013391	2.166679400019291	71.6475256001532	1	aff	0.725828399881721	5.0
71.6476732003458	2.359298700001105	74.00697190034691	1	eng	0.657136599998921	8.0
74.00764880002961	2.4233383000828894	76.4309871001125	1	mvmt	0.720215800218284	2.0
76.43117160023681	3.889626000076504	80.32079760031331	1	delib	0.700910300016403	2.0
80.3209931002885	2.054228499997407	82.37522160028591	1	image	0.625741899944842	7.0
82.3754088003144	1.8812858997844017	84.2566947000988	1	ling	0.677791399881244	2.0
84.2568813003555	2.0111273000953105	86.26800860045081	1	conf	0.650531499646604	8.0
146.1569924000608	3.7070571002549855	149.8640495003158	2	att	2.23296690033749	8.0
149.8642077003558	2.969861299731008	152.8340690000868	2	past	1.07152009988204	1.0
152.83441940042678	1.902190099936007	154.7366095003628	2	fut	0.660257199779153	8.0
154.73685260023478	2.4594670999790083	157.1963197002138	2	self	0.722825800068676	3.0
157.1964931003708	1.8241050997750108	159.0205982001458	2	ppl	0.609347699675709	8.0
159.02082890038884	1.9003433999599793	160.92117230034881	2	arou	0.65862450003624	8.0
160.9215972004418	1.9034362998789902	162.82503350032079	2	aff	0.639091999735683	7.0
162.8252554000308	2.396706300321995	165.2219617003528	2	eng	0.601859100162983	7.0
165.2221760000058	2.3135281000290036	167.5357041000348	2	mvmt	0.635246700141579	4.0
167.5359450001228	2.751802100334004	170.2877471004568	2	delib	0.622077200096101	3.0
170.28794050029978	1.8497256999829972	172.13766620028278	2	image	0.85200159996748	8.0
172.13786800018983	2.48223849991399	174.62010650010382	2	ling	0.642477700021118	6.0
174.6203229003538	2.2410587999040104	176.86138170025782	2	conf	0.88983909972012	9.0
230.75325120007182	3.320757600012996	234.0740088000848	3	att	1.58983540022746	3.0
234.07428640033578	1.0642697997390087	235.1385562000748	3	past	0.632808899972588	5.0
235.1387691004158	1.1609910000109949	236.2997601004268	3	fut	0.622397399973124	5.0
236.3000092003448	1.7987905996849918	238.09879980002978	3	self	0.924760899972171	7.0
238.0989497001238	2.9398468001749904	241.0387965002988	3	ppl	0.643107499927282	2.0
241.03899210039083	1.9874285999690073	243.02642070035984	3	arou	0.821205699816346	7.0
243.02662930031784	2.4411649997350082	245.46779430005284	3	aff	0.603608999866992	5.0
245.4680690001648	3.312645700295036	248.78071470045984	3	eng	0.653758199885488	3.0
248.7809171001378	2.5613979999910157	251.34231510012881	3	mvmt	0.69602830009535	8.0
251.34251840039684	2.8943230998700074	254.23684150026685	3	delib	0.629900899715722	4.0
254.2371321003838	1.9467235999180161	256.1838557003018	3	image	0.662639699876308	8.0
256.1840564003168	1.4992511998859754	257.6833076002028	3	ling	0.68344679987058	4.0
257.6835540002168	3.1999734998680083	260.8835275000848	3	conf	0.741766999941319	9.0
322.7579025002148	4.424077400007036	327.18197990022185	4	att	1.69205529987812	8.0
327.1821465003258	2.1380874998870354	329.32023400021285	4	past	0.805862599983811	5.0
329.3204800002228	1.2121850000700078	330.5326650002928	4	fut	0.612515899818391	5.0
330.5328590003728	2.5713634998539874	333.1042225002268	4	self	0.973675599787384	9.0
333.1045698001938	2.7323293001389857	335.8368991003328	4	ppl	0.782015600241721	2.0
335.8370565003668	2.3160659996800064	338.15312250004683	4	arou	0.914353899657726	3.0
338.1533335000228	3.2167578004300026	341.3700913004528	4	aff	1.02916860021651	5.0
341.3703010003038	2.940938999875982	344.3112400001798	4	eng	0.613488100003451	2.0
344.31145650008284	2.638782700057959	346.9502392001408	4	mvmt	0.669473200105131	3.0
346.9504457004328	2.808273999951041	349.75871970038384	4	delib	0.665828599594533	3.0
349.7589027001478	2.090227799955983	351.8491305001038	4	image	0.74055129988119	5.0
351.8493369002778	1.1169401998640183	352.96627710014184	4	ling	0.703571599908173	5.0
352.9664888000068	2.7067639003510067	355.6732527003578	4	conf	1.31577700003982	9.0
413.5676936004268	12.001784599851987	425.5694782002788	5	att	11.5907553997822	6.0
425.5697585004338	1.718852599617037	427.28861110005084	5	past	0.867276599630713	5.0
427.2893473003018	1.7472525998019819	429.0365999001038	5	fut	0.899849900044501	5.0
429.03724810014984	2.0383346001619884	431.0755827003118	5	self	0.7847183002159	8.0
431.0764330001508	2.618897700215996	433.6953307003668	5	ppl	0.69030740018934	3.0
433.6961917001708	2.1932280999610043	435.8894198001318	5	arou	0.888048199936748	8.0
435.89027830026583	1.6131679997779997	437.50344630004383	5	aff	1.06366669991985	5.0
437.5043774000328	2.6093696001910303	440.11374700022384	5	eng	0.749603000003844	3.0
440.11637920001084	2.3939097002149765	442.5102889002258	5	mvmt	0.68192490004003	8.0
442.51142570003384	1.9276869003670072	444.43911260040085	5	delib	0.757687400095165	4.0
444.4399280003228	1.9628953998910106	446.40282340021383	5	image	0.724652799777687	7.0
446.40375310042384	2.359263899736959	448.7630170001608	5	ling	0.624130999669433	7.0
448.7639413000968	2.4865497001450194	451.2504910002418	5	conf	0.947486199904233	8.0
509.16805700025986	3.9312734999699614	513.0993305002298	6	att	1.50727850012481	8.0
513.0999349001748	1.314008600078978	514.4139435002538	6	past	0.732675100211054	5.0
514.4139613001558	1.172843900043972	515.5868052001998	6	fut	0.615445100236684	5.0
515.5868220003279	1.4962297999300063	517.0830518002579	6	self	0.757991000078619	6.0
517.0830671000248	3.124309299980041	520.2073764000048	6	ppl	0.594466600101441	8.0
520.2073932001318	1.8376465002079385	522.0450397003398	6	arou	0.869181000161916	6.0
522.0450566001189	2.3198692002339385	524.3649258003528	6	aff	0.720559900160879	4.0
524.3649450000328	3.1134612001480946	527.4784062001809	6	eng	0.94511179998517	2.0
527.4784204000558	2.6761459000409786	530.1545663000968	6	mvmt	1.31668920023367	1.0
530.1545865000178	3.489797700197073	533.6443842002149	6	delib	0.715166700072587	3.0
533.6444030003578	2.287510199938083	535.9319132002959	6	image	0.805323199834675	8.0
535.9319307003128	4.130365499760956	540.0622962000738	6	ling	0.673431300092489	2.0
540.0623144004448	2.051659699994957	542.1139741004398	6	conf	0.636712699662894	8.0
