onset	duration	cue	constant1	timestamp	stimulus_coherence	response_time	response	constant2
20.706461268477142	0.8128693	1	49	3644878.41	68.75	1.0060452003963292	2	0
21.519330568611622	0.8164762002415955	2	49	3644879.11	81.25	0.8926937999203801	2	0
22.335806768853217	0.8255431	2	49	3644879.818	100	0.7844459996558726	1	0
23.161349868867546	0.8201663997024298	2	49	3644880.566	93.75	0.7070057997480035	1	0
23.981516268569976	0.8822600999847054	2	49	3644881.375	81.25	0.6956879002973437	1	0
24.86377636855468	0.8226409000344574	1	49	3644882.108	75	0.5463842	1	0
25.68641726858914	0.8210883000865579	2	49	3644883.075	87.5	0.6907428000122309	1	0
26.507505568675697	0.8155680000782013	2	49	3644883.818	81.25	0.6129998001269996	1	0
27.323073568753898	0.8105806	1	49	3644884.575	75	0.5541346999816597	1	0
28.13365416880697	0.8109841998666525	2	49	3644885.682	87.5	0.8510252	2	0
28.944638368673623	0.8186853001825511	2	49	3644886.292	87.5	0.6495815999805927	1	0
29.763323668856174	0.8202310996130109	1	49	3644886.997	75	0.5359574998728931	1	0
30.583554768469185	0.8121862001717091	2	49	3644887.887	81.25	0.6060470002703369	1	0
31.395740968640894	0.8155112001113594	2	49	3644888.576	62.5	0.4824528000317514	1	0
32.21125216875225	0.8198513998650014	2	49	3644889.404	68.75	0.49501039972528815	1	0
33.031103568617254	0.8138278000988066	2	49	3644890.377	87.5	0.6483117998577654	1	0
33.84493136871606	0.8115021	2	49	3644891.205	87.5	0.6624706997536123	1	0
34.656433468684554	0.8152557997964323	2	49	3644892.076	93.75	0.7221049000509083	1	0
35.471689268480986	0.8117858003824949	2	49	3644893.173	68.75	1.003759799990803	2	0
36.28347506886348	0.8130297996103764	2	49	3644893.826	87.5	0.8449312997981906	2	0
37.09650486847386	0.8112042001448572	2	49	3644894.635	87.5	0.8409365001134574	2	0
37.907709068618715	0.8188646999187768	2	49	3644895.318	93.75	0.7126151998527348	1	0
38.72657376853749	0.8126612999476492	2	49	3644896.014	81.25	0.5901146000251174	1	0
39.53923506848514	0.8149921000003815	2	49	3644896.78	75	0.5427631000056863	1	0
40.35422716848552	0.8130532000213861	2	49	3644897.369	43.75	0.31730780005455017	1	0
41.16728036850691	0.8128456003032625	1	49	3644898.243	50	0.37826739996671677	1	0
41.98012596881017	0.8173012998886406	2	49	3644899.55	87.5	0.8727281000465155	2	0
42.79742726869881	0.8143826997838914	2	49	3644900.052	75	0.5572433001361787	1	0
43.61180997	0.8159040003083646	1	49	3644900.703	56.25	0.3931626002304256	1	0
44.42771396879107	0.8201339999213815	2	49	3644902.067	75	0.9420296000316739	2	0
45.24784796871245	0.8132237000390887	1	49	3644902.72	100	0.7748467000201344	1	0
46.06107166875154	0.8105892	2	49	3644903.479	93.75	0.7206377000547945	1	0
46.871660868637264	0.8136452999897301	2	49	3644904.273	93.75	0.7036669	1	0
47.685306168626994	0.8226605001837015	2	49	3644905.291	81.25	0.9085174	2	0
48.507966668810695	0.8204293996095657	1	49	3644906.011	93.75	0.8058878998272121	2	0
49.32839606842026	0.8178889001719654	2	49	3644907.063	68.75	1.0373596004210413	2	0
50.14628496859223	0.8178268000483513	2	49	3644908.033	50	1.1886494001373649	2	0
50.96411176864058	0.8221070999279618	1	49	3644908.546	87.5	0.8840568	2	0
51.78621886856854	0.8173169000074267	2	49	3644909.27	100	0.7866230001673102	1	0
52.603535768575966	0.8143028998747468	2	49	3644909.852	75	0.5504184998571873	1	0
53.41783866845071	0.8211341	2	49	3644911.066	81.25	0.9501395002007484	2	0
54.238972768653184	0.8114064000546932	2	49	3644911.66	93.75	0.7231148998253047	1	0
55.05037916870788	0.8139351001009345	2	49	3644912.336	81.25	0.5875125997699797	1	0
55.86431426880881	0.8094518	2	49	3644913.448	81.25	0.8856758996844292	2	0
56.67376606864855	0.8150733998045325	2	49	3644914.049	87.5	0.6772182998247445	1	0
57.48883946845308	0.8115312000736594	2	49	3644915.264	62.5	1.0777560002170503	2	0
58.30037066852674	0.8207912999205291	2	49	3644916.006	68.75	1.0078551000915468	2	0
59.12116196844727	0.8168741003610194	1	49	3644917.006	50	1.1870738002471626	2	0
59.93803606880829	0.8193491	2	49	3644917.501	87.5	0.8650992996990681	2	0
60.757385168690234	0.8098415997810662	2	49	3644918.086	87.5	0.6309877000749111	1	0
61.56722677	0.8101246999576688	2	49	3644919.263	68.75	0.9980019	2	0
62.37735146842897	0.8176760002970695	2	49	3644919.873	93.75	0.7978347004391253	2	0
63.19502746872604	0.8212508000433445	1	49	3644920.598	93.75	0.7051682998426259	1	0
64.01627826876938	0.8138003000058234	2	49	3644921.244	68.75	0.5300246998667717	1	0
64.83007857	0.8251185999251902	2	49	3644922.49	75	0.9626026996411383	2	0
65.65519717	0.8138578999787569	2	49	3644923.017	87.5	0.6643481999635696	1	0
66.46905506867915	0.8220195998437703	1	49	3644924.305	56.25	1.1384784998372197	2	0
67.29107466852292	0.8183228000998497	2	49	3644924.723	100	0.7344323000870645	1	0
68.10939746862277	0.8115089000202715	2	49	3644925.866	62.5	1.0589259997941554	2	0
68.92090636864305	0.8083623	2	49	3644926.429	93.75	0.8104604999534786	2	0
69.72926866868511	0.8134841998107731	2	49	3644927.14	93.75	0.7133073001168668	1	0
70.54275286849588	0.8199080000631511	2	49	3644927.792	75	0.5517299002967775	1	0
71.36266086855903	0.8132337001152337	2	49	3644928.579	68.75	0.518884	1	0
72.17589456867427	0.8194341	2	49	3644929.272	56.25	0.3981193997897208	1	0
72.99532866850495	0.8177823000587523	2	49	3644930.525	93.75	0.8322898000478745	2	0
73.81311097	0.8175579002127051	2	49	3644931.286	100	0.7755331001244485	1	0
74.63066886877641	0.8177661998197436	2	49	3644931.951	81.25	0.6230605999007821	1	0
75.44843506859615	0.8154520001262426	2	49	3644932.707	75	0.5610694	1	0
76.26388707	0.8201230997219682	2	49	3644933.436	62.5	0.4747065999545157	1	0
77.08401016844437	0.8194945002906024	2	49	3644934.743	75	0.9617390003986657	2	0
77.90350466873497	0.8152099000290036	2	49	3644935.47	87.5	0.8691380000673234	2	0
78.71871456876397	0.8191383997909725	2	49	3644936.067	87.5	0.6503773001022637	1	0
79.53785296855494	0.8193272999487817	2	49	3644936.887	87.5	0.6511816000565886	1	0
80.35718026850373	0.8245151001028717	2	49	3644937.49	62.5	0.4355243002064526	1	0
81.18169537	0.8305398002266884	2	49	3644938.933	68.75	1.0541449999436736	2	0
82.01223516883329	0.8287654998712242	1	0	0	0	0	0	0
82.84100066870451	0.8190832999534905	2	49	3644939.946	56.25	0.4075766000896692	1	0
83.66008397	0.8153132000006735	2	49	3644940.951	81.25	0.5937800998799503	1	0
84.47539716865867	0.8131585	1	49	3644941.581	56.25	0.40844220016151667	1	0
85.28855566866696	0.8115861001424491	2	49	3644942.95	75	0.9634158997796476	2	0
86.10014176880941	0.8226956999860704	2	49	3644943.49	93.75	0.6917551998049021	1	0
86.92283746879548	0.8121670996770263	2	49	3644944.137	68.75	0.5165744996629655	1	0
87.73500457	0.8224049001000822	2	49	3644944.953	68.75	0.5205000001005828	1	0
88.55740946857259	0.8221654002554715	2	49	3644945.749	68.75	0.4938473	1	0
89.37957486882806	0.8168503995984793	2	49	3644947.107	68.75	1.0295702000148594	2	0
90.19642526842654	0.8163395002484322	2	49	3644947.721	93.75	0.8269762001000345	2	0
91.01276476867497	0.8184485	2	49	3644948.5	93.75	0.7892554998397827	2	0
91.83121326845139	0.8176469001919031	2	49	3644949.079	75	0.5497830002568662	1	0
92.64886017	0.8128010998480022	2	49	3644949.903	75	0.5562398000620306	1	0
93.46166127	0.8115731999278069	2	49	3644951.192	68.75	1.032552500255406	2	0
94.27323447	0.8128941003233194	2	49	3644951.693	93.75	0.7225818000733852	1	0
95.08612856874242	0.8131498997099698	2	49	3644952.247	62.5	0.46315039973706007	1	0
95.89927847	0.812695	1	49	3644952.893	43.75	0.2958146003074944	1	0
96.71197346877307	0.8132233000360429	2	49	3644953.948	75	0.5387231	1	0
97.52519676880911	0.8160105999559164	2	49	3644954.62	56.25	0.3972056000493467	1	0
98.34120736876503	0.8201224999502301	2	49	3644955.967	81.25	0.9279334996826947	2	0
99.16132986871526	0.8186774998903275	2	49	3644956.555	93.75	0.6962755001150072	1	0
99.98000736860558	0.8146663000807166	2	49	3644957.22	75	0.5423062001354992	1	0
100.7946736686863	0.8150506000965834	2	49	3644958.53	68.75	1.037780299782753	2	0
101.60972426878288	0.8150824997574091	2	49	3644959.075	100	0.7676621000282466	1	0
102.4248067685403	0.8179333000443876	2	49	3644959.637	68.75	0.5147261000238359	1	0
103.24274006858468	0.8212753999978304	2	49	3644960.975	68.75	1.0345528000034392	2	0
104.06401546858251	0.8153492002747953	2	49	3644961.541	100	0.7794286999851465	1	0
104.8793646688573	0.8150398000143468	2	49	3644962.175	81.25	0.5980741996318102	1	0
105.69440446887165	0.8241431997157633	2	49	3644962.897	68.75	0.5051927	1	0
106.51854766858742	0.8153908001258969	2	49	3644964.141	81.25	0.9251004001125693	2	0
107.33393846871331	0.8193819997832179	2	49	3644964.788	100	0.7569259000010788	1	0
108.15332046849653	0.8130437000654638	1	49	3644965.425	75	0.5740650999359787	1	0
108.9663642	0.8074029	2	49	3644966.708	62.5	1.0442331000231206	2	0
109.77376706851646	0.8161416999064386	2	49	3644967.301	93.75	0.8298398000188172	2	0
110.5899087684229	0.8206607000902295	2	49	3644967.868	75	0.5806587003171444	1	0
111.41056946851313	0.8161383	2	49	3644969.136	68.75	1.0282795000821352	2	0
112.22670776862651	0.8112447001039982	1	49	3644969.744	93.75	0.8195446999743581	2	0
113.03795246873051	0.8106420999392867	2	49	3644970.531	93.75	0.7952860998921096	2	0
113.8485945686698	0.8128566001541913	2	49	3644971.128	81.25	0.5820480999536812	1	0
114.66145116882399	0.8176510999910533	2	49	3644972.36	68.75	1.0013322997838259	2	0
115.47910226881504	0.8207637998275459	2	49	3644973.249	62.5	1.0725937997922301	2	0
116.29986606864259	0.8189213997684419	2	49	3644973.647	87.5	0.6499529997818172	1	0
117.11878746841103	0.8158839	2	49	3644974.698	87.5	0.8820084002800286	2	0
117.93467136844993	0.8155475002713501	2	49	3644975.477	87.5	0.8451925003901124	2	0
118.75021886872128	0.8120814999565482	2	49	3644976.112	87.5	0.6638732999563217	1	0
119.56230036867782	0.8134892997331917	2	49	3644976.803	75	0.5434558000415564	1	0
120.37578966841102	0.8179607	2	49	3644977.538	62.5	0.46416590036824346	1	0
121.19375036843121	0.8151352000422776	2	49	3644978.873	75	0.9811747004278004	2	0
122.00888556847349	0.8199489000253379	2	49	3644979.475	100	0.7689972002990544	1	0
122.82883446849883	0.8170478	1	49	3644980.122	81.25	0.5954908	1	0
123.64588226843625	0.8103675004094839	2	49	3644980.872	75	0.5281059	1	0
124.45624976884574	0.8164618997834623	1	49	3644981.638	62.5	0.4836872	1	0
125.2727116686292	0.8260784	2	49	3644982.997	68.75	1.0265923999249935	2	0
126.09879006864503	0.8205770999193192	2	49	3644983.701	81.25	0.9044391000643373	2	0
126.91936716856435	0.8120067999698222	2	49	3644984.454	93.75	0.8367492998950183	2	0
127.73137396853417	0.8139277999289334	2	49	3644985.107	87.5	0.6777262003161013	1	0
128.5453017684631	0.8107931003905833	2	49	3644986.277	62.5	1.0340686002746224	2	0
129.3560948688537	0.8173456997610629	2	49	3644986.93	87.5	0.8760708998888731	2	0
130.17344056861475	0.8123321998864412	1	49	3644988.101	43.75	1.2298087999224663	2	0
130.9857727685012	0.8203696003183722	1	49	3644989.008	31.25	1.3243856001645327	2	0
131.80614236881956	0.8192681	2	49	3644989.572	62.5	1.0686561996117234	2	0
132.62541046878323	0.8150524999946356	2	49	3644990.154	93.75	0.8310965998098254	2	0
133.44046296877787	0.8149265	2	49	3644990.806	87.5	0.6677003996446729	1	0
134.2553894687444	0.8244711	2	49	3644991.816	87.5	0.8633828000165522	2	0
135.07986056851223	0.8154510003514588	2	49	3644992.33	75	0.5529781999066472	1	0
135.8953115688637	0.8154111998155713	2	49	3644993.664	62.5	1.0711179999634624	2	0
136.71072276867926	0.8172681001015007	1	0	0	0	0	0	0
137.52799086878076	0.8165580998174846	2	49	3644994.837	81.25	0.6113758999854326	1	0
138.34454896859825	0.8153567002154887	2	49	3644996.102	62.5	1.0599489002488554	2	0
139.15990566881374	0.8102781996130943	2	49	3644996.616	100	0.7584132999181747	1	0
139.97018386842683	0.8163848002441227	2	49	3644997.276	81.25	0.6083179004490376	1	0
140.78656866867095	0.8127329000271857	1	49	3644998.072	81.25	0.5879673999734223	1	0
141.59930156869814	0.8099529	1	49	3644998.942	87.5	0.6446230001747608	1	0
142.4092544685118	0.8176036002114415	2	49	3644999.903	93.75	0.7962333001196384	2	0
143.22685806872323	0.8193216999061406	2	49	3645000.497	75	0.5729283997789025	1	0
144.04617976862937	0.8160075000487268	2	49	3645001.723	75	0.9788986998610198	2	0
144.8621872686781	0.8163212	1	0	0	0	0	0	0
145.67850846843794	0.8158087003976107	2	49	3645002.989	81.25	0.6130571002140641	1	0
146.49431716883555	0.8216093997471035	2	49	3645003.962	100	0.7704063998535275	1	0
147.31592656858265	0.817368	1	49	3645004.424	56.25	0.4108295999467373	1	0
148.13329456886277	0.8222007998265326	2	49	3645005.412	75	0.5815606	1	0
148.9554953686893	0.8131985999643803	2	49	3645006.459	93.75	0.8062574998475611	2	0
149.76869396865368	0.8118297997862101	2	49	3645007.547	62.5	1.0810819999314845	2	0
150.5805237684399	0.8113744002766907	2	49	3645008.306	68.75	1.028186300303787	2	0
151.39189816871658	0.8193339998833835	2	49	3645008.921	93.75	0.8318383	2	0
152.21123216859996	0.8091270998120308	2	49	3645009.758	87.5	0.8490042	2	0
153.0203593	0.8191172000952065	2	49	3645010.355	87.5	0.6367137003690004	1	0
153.8394764685072	0.8140511000528932	2	49	3645011.4	87.5	0.8628778	2	0
154.6535275685601	0.8214044999331236	2	49	3645012.043	93.75	0.6923525002785027	1	0
155.47493206849322	0.8173924000002444	2	49	3645012.677	68.75	0.5042516002431512	1	0
156.29232446849346	0.8197983000427485	2	49	3645014.016	68.75	1.025838500354439	2	0
157.1121227685362	0.8153952001594007	2	49	3645014.66	87.5	0.8503570002503693	2	0
157.9275179686956	0.8203823999501765	2	49	3645015.296	87.5	0.6708517000079155	1	0
158.7479003686458	0.8224969999864697	1	49	3645015.802	50	0.35613409988582134	1	0
159.57039736863226	0.8151377998292446	2	49	3645016.781	68.75	0.5128880999982357	1	0
160.3855351684615	0.8098075999878347	1	49	3645017.416	50	0.33248990029096603	1	0
161.19534276844934	0.8118749000132084	2	49	3645018.516	81.25	0.6227409	1	0
162.00721766846254	0.8074292000383139	2	49	3645019.718	68.75	1.0128148002550006	2	0
162.81464686850086	0.8175210002809763	2	49	3645020.293	100	0.7803478999994695	1	0
163.63216786878183	0.8142283000051975	2	49	3645020.878	75	0.5479954998008907	1	0
164.44639616878703	0.8164416998624802	2	49	3645022.023	87.5	0.8788474	2	0
165.2628378686495	0.8236495000310242	2	49	3645022.752	100	0.7915165000595152	1	0
166.08648736868054	0.8080671997740865	2	49	3645023.428	87.5	0.6437109000980854	1	0
166.89455456845462	0.8200364001095295	1	49	3645024.057	62.5	0.46464520040899515	1	0
167.71459096856415	0.8248016000725329	2	49	3645024.999	75	0.5866535999812186	1	0
168.53939256863669	0.8203338999301195	2	49	3645025.857	81.25	0.6202397998422384	1	0
169.3597264685668	0.8119509001262486	2	49	3645026.809	100	0.7517133001238108	1	0
170.17167736869305	0.8123921998776495	1	49	3645027.874	68.75	1.0046981000341475	2	0
170.9840695685707	0.8133167000487447	2	49	3645028.777	56.25	1.0952480998821557	2	0
171.79738626861945	0.8109919000416994	2	49	3645029.315	93.75	0.8201501001603901	2	0
172.60837816866115	0.8196072	2	49	3645029.921	81.25	0.6149810999631882	1	0
173.42798536876217	0.8146990998648107	2	49	3645030.532	56.25	0.40634269965812564	1	0
174.24268446862698	0.8161642	2	49	3645031.386	62.5	0.44525030022487044	1	0
175.05884866882116	0.8103883997537196	2	49	3645032.292	75	0.5354950996115804	1	0
175.86923706857488	0.8122213999740779	2	49	3645033.599	68.75	1.0322524001821876	2	0
176.68145846854895	0.8106702999211848	2	49	3645034.294	81.25	0.9150187000632286	2	0
177.49212876847014	0.8105648001655936	2	49	3645035.076	81.25	0.8865322000347078	2	0
178.30269356863573	0.8242411999963224	2	49	3645035.805	93.75	0.8049408998340368	2	0
179.12693476863205	0.8150750999338925	2	49	3645036.501	87.5	0.6767384000122547	1	0
179.94200986856595	0.8085737000219524	2	49	3645037.516	87.5	0.8760247998870909	2	0
180.7505835685879	0.8118361001834273	2	49	3645038.198	100	0.7496019001118839	1	0
181.56241966877133	0.8123972998000681	2	49	3645038.734	62.5	0.4741160999983549	1	0
182.3748169685714	0.8216933999210596	1	49	3645039.556	62.5	0.4838513000868261	1	0
183.19651036849245	0.8139885002747178	2	49	3645040.663	100	0.7691999999806285	1	0
184.01049886876717	0.813549	2	49	3645041.592	87.5	0.8842938998714089	2	0
184.8240478686057	0.8129608002491295	2	49	3645042.16	87.5	0.6386997001245618	1	0
185.63700866885483	0.821145	2	49	3645042.831	68.75	0.4968472998589277	1	0
186.45815366879106	0.8204441000707448	2	49	3645044.07	81.25	0.9140870999544859	2	0
187.2785977688618	0.8089677998796105	2	49	3645044.706	100	0.7301918999291956	1	0
188.0875655687414	0.8080634	2	49	3645045.373	81.25	0.5874171000905335	1	0
188.8956289687194	0.8123677000403404	1	49	3645045.965	50	0.3721620999276638	1	0
189.70799666875973	0.8156504998914897	2	49	3645047.43	68.75	1.0240453998558223	2	0
190.52364716865122	0.8140273001044989	1	49	3645047.897	87.5	0.6754536000080407	1	0
191.33767446875572	0.8267576000653207	2	49	3645048.693	87.5	0.6572296000085771	1	0
192.16443206882104	0.8159230998717248	1	0	0	0	0	0	0
192.98035516869277	0.8151839999482036	2	49	3645050.194	68.75	0.5156311001628637	1	0
193.79553916864097	0.8207296999171376	2	49	3645051.54	62.5	1.0463825999759138	2	0
194.6162688685581	0.8149349000304937	2	49	3645052.018	93.75	0.7044569002464414	1	0
195.4312037685886	0.8140952000394464	2	49	3645052.677	75	0.5479314001277089	1	0
196.24529896862805	0.8118555000983179	2	49	3645053.52	75	0.5768539998680353	1	0
197.05715446872637	0.8123240997083485	1	49	3645054.044	43.75	0.28885439969599247	1	0
197.86947856843472	0.8104612003080547	2	49	3645055.574	68.75	1.0067776003852487	2	0
198.67993976874277	0.8176148999482393	2	49	3645056.127	100	0.7492321999743581	1	0
199.4975547	0.8089565997943282	2	49	3645056.797	81.25	0.6020244001410902	1	0
200.30651126848534	0.8189334003254771	2	49	3645058.065	62.5	1.060707500204444	2	0
201.12544466881081	0.8154138997197151	2	49	3645058.68	87.5	0.8568488997407258	2	0
201.94085856853053	0.8172647003084421	2	49	3645059.37	93.75	0.7314805001951754	1	0
202.75812326883897	0.8207136997953057	2	49	3645060	75	0.5440687998197973	1	0
203.57883696863428	0.8142948001623154	2	49	3645060.691	56.25	0.4144427	1	0
204.3931317687966	0.8197474000044167	2	49	3645061.534	62.5	0.44363379990682006	1	0
205.2128792	0.8183141998015344	2	49	3645062.896	75	0.9856237997300923	2	0
206.03119336860254	0.8193756002001464	1	49	3645063.682	75	0.9531804001890123	2	0
206.8505689688027	0.8121128999628127	2	49	3645064.664	56.25	1.1158491997048259	2	0
207.6626818687655	0.8103667	2	49	3645065.187	93.75	0.8269595997408032	2	0
208.47304856870323	0.8169839000329375	1	49	3645065.767	81.25	0.5963539998047054	1	0
209.29003246873617	0.8147615999914706	1	49	3645066.754	100	0.7667050999589264	1	0
210.10479406872764	0.8109132000245154	2	49	3645067.592	93.75	0.7896754001267254	2	0
210.91570726875216	0.8216132000088692	2	49	3645068.178	75	0.5649953000247478	1	0
211.73732046876103	0.8226088997907937	2	49	3645069.426	75	0.9914021	2	0
212.55992936855182	0.8188095	2	49	3645070.35	62.5	1.0928874001838267	2	0
213.37873886851594	0.8141612000763416	2	49	3645071.019	75	0.9428290002979338	2	0
214.19290006859228	0.8198819998651743	2	49	3645071.654	100	0.7639236999675632	1	0
215.01278206845745	0.8170894	2	0	0	0	0	0	0
215.82987146871164	0.8168812999501824	2	49	3645073.55	68.75	1.0228242999874055	2	0
216.64675276866183	0.8195442999713123	2	49	3645074.298	75	0.9539935998618603	2	0
217.46629706863314	0.8150766999460757	2	49	3645074.806	87.5	0.6423937999643385	1	0
218.28137376857921	0.8105998001992702	2	49	3645076.196	43.75	1.2173150000162423	2	0
219.09197356877849	0.8102368996478617	2	0	0	0	0	0	0
219.90221046842635	0.8247077004052699	2	49	3645077.358	100	0.7584469001740217	1	0
220.72691816883162	0.8246659999713302	2	49	3645078.045	81.25	0.6208820999599993	1	0
221.55158416880295	0.8249395997263491	2	49	3645079.253	68.75	1.0042299996130168	2	0
222.3765237685293	0.8176444000564516	2	49	3645079.959	87.5	0.8844502000138164	2	0
223.19416816858575	0.8114502001553774	2	49	3645080.88	68.75	0.9887100998312235	2	0
224.00561836874112	0.8126499000936747	2	49	3645081.605	81.25	0.9017698001116514	2	0
224.8182682688348	0.8115182998590171	1	49	3645082.269	100	0.7529652998782694	1	0
225.62978656869382	0.8145745997317135	2	49	3645083.408	62.5	1.0810992000624537	2	0
226.44436116842553	0.8226867001503706	2	49	3645083.837	93.75	0.6945548001676798	1	0
227.2670478685759	0.8149248	2	49	3645084.463	68.75	0.4980941000394523	1	0
228.08197266841307	0.8236719002015889	2	49	3645085.115	50	0.33496620040386915	1	0
228.90564456861466	0.8308668001554906	2	49	3645086.625	68.75	1.021418500225991	2	0
229.73651136877015	0.8304558000527322	1	0	0	0	0	0	0
230.56696716882288	0.8342333999462426	1	49	3645088.587	37.5	1.3220914998091757	2	0
231.40120056876913	0.8318356000818312	2	49	3645089.059	75	0.9598685000091791	2	0
232.23303616885096	0.8339609	2	49	3645089.62	87.5	0.6891428	1	0
233.06699706846848	0.8313466003164649	2	49	3645090.641	87.5	0.8762753000482917	2	0
233.89834366878495	0.8217678000219166	2	49	3645091.157	75	0.5612729997374117	1	0
234.72011146880686	0.8186748996376991	2	49	3645092.284	87.5	0.866687	2	0
235.53878636844456	0.8221815000288188	2	49	3645092.853	81.25	0.6164879002608359	1	0
236.36096786847338	0.8337763003073633	2	49	3645093.459	56.25	0.4002029001712799	1	0
237.19474416878074	0.8337258999235928	2	49	3645095.002	62.5	1.109744899906218	2	0
238.02847006870434	0.8319653999060392	2	49	3645095.624	87.5	0.8979863999411464	2	0
238.86043546861038	0.8266993998549879	1	0	0	0	0	0	0
239.68713486846536	0.8309999001212418	2	49	3645097.053	87.5	0.6681384001858532	1	0
240.5181347685866	0.8294250001199543	1	49	3645098.433	43.75	1.2171906000003219	2	0
241.34755976870656	0.8318777000531554	2	49	3645099.1	68.75	1.0549309998750687	2	0
242.17943746875972	0.8341506998986006	2	49	3645099.662	100	0.7849481999874115	1	0
243.01358816865832	0.8285340000875294	2	49	3645100.349	81.25	0.6377967000007629	1	0
243.84212216874585	0.8338909996673465	1	49	3645100.989	62.5	0.4493112997151911	1	0
244.6760131684132	0.8340947004035115	2	49	3645102.066	87.5	0.6924673	1	0
245.5101078688167	0.8321198998019099	2	49	3645102.864	87.5	0.6563999997451901	1	0
246.3422277686186	0.8285484001971781	2	49	3645103.449	56.25	0.4094235999509692	1	0
247.1707761688158	0.8333771	2	49	3645104.738	87.5	0.8698751996271312	2	0
248.00415326841176	0.8335124002769589	2	49	3645105.627	81.25	0.9253553003072739	2	0
248.83766566868871	0.8332874998450279	2	49	3645106.326	100	0.7910903999581933	1	0
249.67095316853374	0.8292902000248432	2	49	3645106.963	81.25	0.5946456003002822	1	0
250.50024336855859	0.8339877002872527	2	49	3645107.748	75	0.5504455999471247	1	0
251.33423106884584	0.8336939997971058	2	49	3645108.636	81.25	0.6044242000207305	1	0
252.16792506864294	0.8331181001849473	2	49	3645109.856	75	0.9909510998986661	2	0
253.0010431688279	0.8307845997624099	1	0	0	0	0	0	0
253.8318277685903	0.8325018999166787	2	49	3645111.292	100	0.7629173998720944	1	0
254.66432966850698	0.8318378999829292	2	49	3645111.931	75	0.5693801	1	0
255.4961675684899	0.8315535001456738	2	49	3645112.681	62.5	0.4876548000611365	1	0
256.3277210686356	0.8280973001383245	2	49	3645114.118	62.5	1.0924590998329222	2	0
257.1558183687739	0.8124869996681809	2	49	3645114.812	75	0.9584947996772826	2	0
257.9683053684421	0.8306463002227247	2	49	3645115.428	100	0.7616803	1	0
258.7989516686648	0.8339319997467101	1	0	0	0	0	0	0
259.6328836684115	0.8313208003528416	2	49	3645116.752	56.25	0.4212338	1	0
260.46420446876436	0.8128792000934482	1	49	3645117.532	50	0.3697552001103759	1	0
261.2770836688578	0.8190490999259055	2	49	3645118.662	87.5	0.6869478998705745	1	0
262.0961327687837	0.8123861998319626	2	49	3645119.492	93.75	0.6984101999551058	1	0
262.9085189686157	0.8138017999008298	2	49	3645120.295	93.75	0.6883841999806464	1	0
263.7223207685165	0.8179096	2	49	3645120.942	68.75	0.5222579003311694	1	0
264.5402303687297	0.8138208999298513	2	49	3645121.666	56.25	0.42777680000290275	1	0
265.35405126865953	0.8178304000757635	2	49	3645122.394	50	0.34212939999997616	1	0
266.1718816687353	0.8195194997824728	2	49	3645123.34	62.5	0.4704577000811696	1	0
266.99140116851777	0.8103267000988126	2	49	3645124.603	81.25	0.9138255002908409	2	0
267.8017278686166	0.8123908000998199	1	0	0	0	0	0	0
268.6141186687164	0.8140631001442671	1	0	0	0	0	0	0
269.42818176886067	0.8182045998983085	2	49	3645126.786	87.5	0.6606916999444366	1	0
270.2463864	0.8128794999793172	2	49	3645127.454	68.75	0.5097664999775589	1	0
271.0592658687383	0.8202104000374675	2	49	3645128.684	81.25	0.9271255997009575	2	0
271.87947626877576	0.8136227000504732	2	49	3645129.384	93.75	0.8070940999314189	2	0
272.69309896882623	0.8159692	2	49	3645129.998	81.25	0.6068336	1	0
273.50906816869974	0.8123073000460863	2	49	3645130.641	62.5	0.43428559973835945	1	0
274.3213754687458	0.8159353998489678	2	49	3645131.34	43.75	0.3208912000991404	1	0
275.1373108685948	0.8176810001023114	1	49	3645132.128	43.75	0.29327369993552566	1	0
275.9549918686971	0.8175800000317395	2	49	3645133.597	75	0.9444118998944759	2	0
276.77257186872885	0.8179568001069129	2	49	3645134.078	81.25	0.6079440000467002	1	0
277.59052866883576	0.8169037997722626	2	49	3645134.848	75	0.5599526	1	0
278.4074325	0.8105843001976609	2	49	3645135.622	68.75	0.5167064000852406	1	0
279.2180167688057	0.8168058996088803	2	49	3645136.985	62.5	1.0689784996211529	2	0
280.03482266841456	0.8162787002511322	2	49	3645137.774	62.5	1.0417634001933038	2	0
280.8511013686657	0.8165040998719633	2	49	3645138.55	68.75	1.0015568998642266	2	0
281.66760546853766	0.8186135003343225	2	49	3645139.135	100	0.7698917002417147	1	0
282.486219	0.8168927	2	49	3645139.806	81.25	0.6224432997405529	1	0
283.30311166867614	0.8127930997870862	2	49	3645140.559	75	0.5585793000645936	1	0
284.1159047684632	0.8174757002852857	2	49	3645141.325	68.75	0.5113039002753794	1	0
284.9333804687485	0.8187746000476182	1	49	3645142.089	62.5	0.45845740009099245	1	0
285.7521550687961	0.8162503000348806	2	49	3645143.362	81.25	0.9117458998225629	2	0
286.5684054	0.8263233997859061	2	49	3645143.846	75	0.5804571998305619	1	0
287.3947287686169	0.8200621	2	49	3645145.031	81.25	0.9382409998215735	2	0
288.2147908685729	0.8192988000810146	1	49	3645145.717	93.75	0.8041562000289559	2	0
289.0340896686539	0.8147729001939297	2	49	3645146.665	81.25	0.9336572	2	0
289.84886256884784	0.8158279997296631	2	49	3645147.103	75	0.5564817	1	0
290.6646905685775	0.8240773999132216	2	49	3645148.311	81.25	0.9491039	2	0
291.4887679684907	0.8185094	2	49	3645148.953	100	0.7661336003802717	1	0
292.3072773688473	0.8204021998681128	2	49	3645149.992	75	0.9867364997044206	2	0
293.1276795687154	0.8156424998305738	2	49	3645150.505	87.5	0.6792842000722885	1	0
293.94332206854597	0.8134369002655149	2	49	3645151.236	81.25	0.5950046	1	0
294.7567589688115	0.8176384996622801	2	49	3645152.249	93.75	0.7942510000430048	2	0
295.57439746847376	0.8150717001408339	2	49	3645152.937	87.5	0.6646991	1	0
296.3894691686146	0.8157321000471711	2	49	3645153.612	68.75	0.5248382999561727	1	0
297.20520126866177	0.8124350002035499	2	49	3645154.889	75	0.9857887	2	0
298.0176362688653	0.8162003	1	0	0	0	0	0	0
298.8338365685195	0.8237141002900898	2	49	3645156.331	93.75	0.7992909	2	0
299.65755066880956	0.8229461996816099	2	49	3645157.328	75	0.9725465998053551	2	0
300.4804968684912	0.8135943999513984	2	49	3645157.82	87.5	0.6416144999675453	1	0
301.29409126844257	0.8186325002461672	2	49	3645158.963	75	0.9710826	2	0
302.11272376868874	0.8146514999680221	2	49	3645159.707	81.25	0.8963417001068592	2	0
302.92737526865676	0.8174263001419604	2	49	3645160.609	75	0.9838527999818325	2	0
303.7448015687987	0.8125678999349475	1	0	0	0	0	0	0
304.55736946873367	0.8179782000370324	2	49	3645161.794	75	0.5389081998728216	1	0
305.3753476687707	0.8041750998236239	2	49	3645163.019	75	0.9459266997873783	2	0
306.1795227685943	0.8105762000195682	2	49	3645163.52	87.5	0.6427094000391662	1	0
306.9900989686139	0.8176436	2	49	3645164.754	62.5	1.0663883001543581	2	0
307.80774256866425	0.815336	2	49	3645165.463	75	0.9576519001275301	2	0
308.62307856883854	0.8103262	2	49	3645166.077	100	0.7560729999095201	1	0
309.4334047688171	0.8210042999126017	2	49	3645166.947	93.75	0.8163775997236371	2	0
310.25440906872973	0.8135116999037564	2	49	3645167.607	87.5	0.6550106001086533	1	0
311.0679207686335	0.8095468	2	49	3645168.776	68.75	1.0101946000941098	2	0
311.8774675684981	0.8118600002489984	2	49	3645169.428	87.5	0.8530387002974749	2	0
312.6893275687471	0.8141491999849677	2	49	3645170.606	43.75	1.2191061996854842	2	0
313.50347676873207	0.8105174000374973	2	0	0	0	0	0	0
314.31399416876957	0.8174323	2	0	0	0	0	0	0
315.13142646849155	0.8157168002799153	2	0	0	0	0	0	0
315.94714326877147	0.8238717997446656	2	0	0	0	0	0	0
316.77101506851614	0.8194909999147058	2	49	3645173.963	68.75	0.49453809997066855	1	0
317.59050606843084	0.8163073002360761	2	49	3645174.633	50	0.34455240005627275	1	0
318.4068133686669	0.8176054	2	0	0	0	0	0	0
319.22441876865923	0.8124315999448299	2	49	3645176.794	87.5	0.8715960998088121	2	0
320.03685036860406	0.8159674000926316	1	49	3645177.26	68.75	0.5259165000170469	1	0
320.8528177686967	0.8109124000184238	2	49	3645178.154	81.25	0.6030788999050856	1	0
321.6637301687151	0.8116526999510825	2	49	3645179.38	68.75	1.0190968997776508	2	0
322.4753828686662	0.8219137000851333	2	49	3645180.248	62.5	1.074555499944836	2	0
323.29729656875134	0.8178431997075677	2	49	3645180.846	87.5	0.8514128997921944	2	0
324.1151397684589	0.8168089999817312	1	49	3645181.391	75	0.5783366002142429	1	0
324.93194876844063	0.8200936000794172	2	49	3645182.325	93.75	0.6958533003926277	1	0
325.75204236852005	0.8088375	2	49	3645182.977	75	0.5277798003517091	1	0
326.56087986845523	0.8206057003699243	2	49	3645184.291	68.75	1.0320548000745475	2	0
327.38148556882516	0.8111604996956885	2	49	3645185.168	56.25	1.0886994996108115	2	0
328.19264606852084	0.8165516001172364	2	49	3645185.629	93.75	0.7383397999219596	1	0
329.0091976686381	0.8123995000496507	2	49	3645186.193	68.75	0.4857536000199616	1	0
329.82159716868773	0.8183975997380912	2	49	3645187.437	81.25	0.9177294000983238	2	0
330.6399947684258	0.8213397	2	49	3645188.019	87.5	0.6811024001799524	1	0
331.46133446879685	0.8134367996826768	2	49	3645188.584	56.25	0.4246367998421192	1	0
332.2747712684795	0.8121911003254354	2	49	3645189.305	50	0.3322242	1	0
333.08696236880496	0.8154336	2	49	3645190.163	56.25	0.37814299995079637	1	0
333.9023959687911	0.8148501	2	49	3645190.946	50	0.3459226000122726	1	0
334.71724606864154	0.8174558999016881	2	49	3645192.383	75	0.9683897998183966	2	0
335.53470196854323	0.8152358001098037	2	49	3645192.95	93.75	0.7176677002571523	1	0
336.34993776865304	0.8188932999037206	2	49	3645193.595	75	0.5473512997850776	1	0
337.16883106855676	0.8132386	2	49	3645194.512	87.5	0.6460012001916766	1	0
337.9820696688257	0.8160083997063339	2	49	3645195.213	68.75	0.5331325996667147	1	0
338.79807806853205	0.8225293001160026	2	49	3645196.579	62.5	1.083210099954158	2	0
339.62060736864805	0.8165803	2	49	3645197.246	81.25	0.9278290001675487	2	0
340.4371876688674	0.8197505995631218	2	49	3645197.931	93.75	0.7960572997108102	2	0
341.25693826843053	0.8131053000688553	2	49	3645198.507	75	0.5524131003767252	1	0
342.0700435684994	0.8131999000906944	1	49	3645199.181	56.25	0.4133367999456823	1	0
342.8832434685901	0.8124115001410246	1	49	3645200.192	81.25	0.6111098	1	0
343.6956549687311	0.8139503998681903	2	49	3645201.352	75	0.9588892	2	0
344.5096053685993	0.8158542001619935	2	49	3645201.789	75	0.5817956002429128	1	0
345.3254595687613	0.8176257996819913	2	49	3645202.448	56.25	0.42514760000631213	1	0
346.1430853684433	0.8160174	2	49	3645203.736	81.25	0.8954810001887381	2	0
346.9591028	0.8194690002128482	2	49	3645204.359	93.75	0.7025413000956178	1	0
347.7785717686638	0.8155737998895347	2	49	3645205.508	68.75	1.0318836001679301	2	0
348.59414556855336	0.8180065001361072	1	0	0	0	0	0	0
349.41215206868947	0.8141597001813352	2	49	3645206.818	93.75	0.7085921000689268	1	0
350.2263117688708	0.8126485999673605	2	49	3645207.983	62.5	1.0586814996786416	2	0
351.03896036883816	0.8172043999657035	2	49	3645208.555	93.75	0.8187744999304414	2	0
351.85616476880386	0.8182374997995794	2	49	3645209.203	87.5	0.6489565996453166	1	0
352.67440226860344	0.8224501	2	49	3645209.922	75	0.5496355001814663	1	0
353.49685236858204	0.8140242998488247	2	49	3645211.249	62.5	1.0548960999585688	2	0
354.31087666843086	0.8138339002616704	2	49	3645211.981	75	0.9726978000253439	2	0
355.12471056869254	0.8171876	1	0	0	0	0	0	0
355.9418981685303	0.8137161	2	49	3645213.36	93.75	0.7209507003426552	1	0
356.7556142685935	0.8218586002476513	2	49	3645213.931	68.75	0.47826060000807047	1	0
357.57747286884114	0.8336202995851636	2	49	3645214.556	43.75	0.2812788998708129	1	0
358.4110931684263	0.8359706001356244	2	49	3645216.203	62.5	1.094739000312984	2	0
359.24706376856193	0.8322987002320588	2	49	3645217.003	68.75	1.0587212000973523	2	0
360.0793625	0.8278055000118911	2	49	3645217.736	75	0.9595204996876419	2	0
360.9071679688059	0.8329574000090361	2	49	3645218.344	93.75	0.7396361	1	0
361.7401253688149	0.8354348996654153	1	49	3645219.004	75	0.5658012	1	0
362.57556026848033	0.8352013002149761	2	49	3645219.947	87.5	0.6734853000380099	1	0
363.4107615686953	0.8327906001359224	2	49	3645220.63	68.75	0.5221132999286056	1	0
364.24355216883123	0.8302158997394145	2	49	3645221.999	62.5	1.0576137998141348	2	0
365.07376806857064	0.8302573999390006	2	49	3645222.709	81.25	0.9371798001229763	2	0
365.90402546850964	0.8306181002408266	2	49	3645223.362	100	0.7600211002863944	1	0
366.73464356875047	0.8301746998913586	2	49	3645224.093	87.5	0.6604919997043908	1	0
367.56481826864183	0.8300133999437094	2	49	3645224.754	68.75	0.49132149992510676	1	0
368.39483166858554	0.8307074001058936	2	49	3645225.509	56.25	0.41628480004146695	1	0
369.22553906869143	0.8127946997992694	2	49	3645226.949	68.75	1.025546200107783	2	0
370.0383337684907	0.8163525001145899	2	49	3645227.798	62.5	1.0619902000762522	2	0
370.8546862686053	0.8140770001336932	2	49	3645228.479	81.25	0.9267266001552343	2	0
371.6687633	0.8173651997931302	2	49	3645229.161	93.75	0.7944682999514043	2	0
372.4861284685321	0.8128796	2	49	3645229.899	93.75	0.7151329000480473	1	0
373.2990080686286	0.8224569000303745	2	49	3645230.601	81.25	0.6045428002253175	1	0
374.121465	0.8123266999609768	1	49	3645231.376	75	0.5568335000425577	1	0
374.93379166861996	0.8087098998948932	2	49	3645232.352	93.75	0.7203902998007834	1	0
375.74250156851485	0.8083375003188848	2	49	3645232.961	68.75	0.5207440000958741	1	0
376.55083906883374	0.8192239	1	49	3645233.587	50	0.33857079967856407	1	0
377.3700629686937	0.8160840999335051	2	49	3645234.66	81.25	0.5922753000631928	1	0
378.1861470686272	0.8122453	2	49	3645235.815	81.25	0.9312883000820875	2	0
378.9983923686668	0.8112761001102626	2	49	3645236.493	93.75	0.7969725001603365	2	0
379.8096684687771	0.8208737000823021	2	49	3645237.346	93.75	0.8387246998026967	2	0
380.6305421688594	0.8147323997691274	1	49	3645238.095	100	0.7669637999497354	1	0
381.4452745686285	0.8196978000923991	2	49	3645239.256	56.25	1.113149399869144	2	0
382.2649723687209	0.8146167998202145	2	49	3645239.662	93.75	0.6995616001076996	1	0
383.07958916854113	0.8127315999008715	2	49	3645240.38	81.25	0.6023041000589728	1	0
383.8923208	0.8130222000181675	1	49	3645241.279	93.75	0.6893591000698507	1	0
384.7053429684602	0.8209985001012683	2	49	3645242.124	93.75	0.7211893000639975	1	0
385.52634146856144	0.8187688002362847	2	49	3645242.782	75	0.5577897001057863	1	0
386.3451102687977	0.8115145000629127	2	49	3645243.655	81.25	0.6125782998278737	1	0
387.15662476886064	0.8241023998707533	2	49	3645244.361	68.75	0.5070206997916102	1	0
387.9807271687314	0.8068404998630285	2	49	3645245.186	68.75	0.5078431000001729	1	0
388.7875676685944	0.8185207000933588	2	49	3645245.765	43.75	0.2802173001691699	1	0
389.6060883686878	0.8127815001644194	1	49	3645246.694	56.25	0.3900252999737859	1	0
390.4188698688522	0.8215443999506533	2	49	3645247.798	87.5	0.6819841996766627	1	0
391.24041426880285	0.8161771	2	49	3645248.584	87.5	0.6464126999489963	1	0
392.0565914	0.8162425	2	49	3645249.386	81.25	0.6320853997021914	1	0
392.87283386848867	0.8177601001225412	2	49	3645250.407	93.75	0.8370436001569033	2	0
393.6905939686112	0.8154688999056816	2	49	3645250.988	81.25	0.6002568998374045	1	0
394.5060628685169	0.8143965001218021	2	49	3645251.929	93.75	0.7257534000091255	1	0
395.3204593686387	0.8129819999448955	1	49	3645252.726	93.75	0.7074561999179423	1	0
396.1334413685836	0.8162715001963079	2	49	3645253.539	93.75	0.7076202998869121	1	0
396.9497128687799	0.8206687998026609	2	49	3645254.242	81.25	0.5942791998386383	1	0
397.77038166858256	0.8178102001547813	2	49	3645255.438	75	0.9697594000026584	2	0
398.58819186873734	0.8128484999760985	1	49	3645256.079	93.75	0.7927942997775972	2	0
399.40104036871344	0.8195809000171721	2	49	3645256.83	93.75	0.7310790000483394	1	0
400.2206212687306	0.8085864000022411	2	49	3645257.515	81.25	0.5965126999653876	1	0
401.02920766873285	0.8162138997577131	2	49	3645258.129	56.25	0.4018838000483811	1	0
401.84542156849056	0.8172733001410961	2	49	3645259.479	81.25	0.9356835000216961	2	0
402.66269486863166	0.8135421997867525	2	49	3645260.095	100	0.7345390999689698	1	0
403.4762370684184	0.8189423000440001	2	49	3645260.714	75	0.5399075001478195	1	0
404.2951793684624	0.8171683000400662	2	49	3645261.607	81.25	0.6139051001518965	1	0
405.1123476685025	0.8206057003699243	2	49	3645262.837	68.75	1.026924700010568	2	0
405.9329533688724	0.8150403997860849	2	49	3645263.424	93.75	0.7932727998122573	2	0
406.7479937686585	0.8166554998606443	2	49	3645264.187	100	0.7412499999627471	1	0
407.56464926851913	0.8144681002013385	1	49	3645264.961	93.75	0.6985230003483593	1	0
408.3791173687205	0.8137050997465849	2	49	3645265.873	93.75	0.7961876001209021	2	0
409.19282246846706	0.8178513003513217	2	49	3645266.5	81.25	0.6099231000989676	1	0
410.0106737688184	0.8264382998459041	1	49	3645267.171	62.5	0.46317899972200394	1	0
410.8371120686643	0.8181281	1	49	3645268.238	93.75	0.7032563998363912	1	0
411.6552402	0.8125191000290215	2	49	3645269.184	93.75	0.8312129997648299	2	0
412.4677593	0.8133860998786986	2	49	3645269.805	87.5	0.6392867998220026	1	0
413.2811453687027	0.8174352999776602	2	49	3645270.972	68.75	0.9932837998494506	2	0
414.09858066868037	0.8089072997681797	2	49	3645271.772	75	0.9758383999578655	2	0
414.90748796844855	0.8136619003489614	2	49	3645272.275	87.5	0.6701232003979385	1	0
415.7211498687975	0.8151086000725627	2	49	3645272.87	62.5	0.45083489967510104	1	0
416.5362584688701	0.8178265	2	49	3645274.163	81.25	0.9294564998708665	2	0
417.3540849685669	0.815162	2	49	3645274.829	100	0.7775094001553953	1	0
418.16924696881324	0.8247103998437524	2	49	3645275.384	68.75	0.5173416999168694	1	0
418.9939574	0.8158443998545408	2	49	3645276.714	68.75	1.0225945999845862	2	0
419.80980176851153	0.8186413999646902	1	0	0	0	0	0	0
420.6284431684762	0.8150134002789855	2	49	3645277.992	87.5	0.6663629999384284	1	0
421.4434565687552	0.8113086996600032	2	49	3645278.807	87.5	0.6662723999470472	1	0
422.2547652684152	0.8140857	1	49	3645279.436	68.75	0.4838915001600981	1	0
423.06885096849874	0.8128471001982689	2	49	3645280.588	93.75	0.8213196001015604	2	0
423.8816981	0.8145026997663081	2	49	3645281.252	87.5	0.6731305001303554	1	0
424.6962007684633	0.8241866	2	49	3645281.918	68.75	0.5237679001875222	1	0
425.5203873687424	0.8174028997309506	1	49	3645282.593	50	0.3753681997768581	1	0
426.3377902684733	0.8149523003958166	2	49	3645283.785	100	0.7499689999967813	1	0
427.15274256886914	0.8141478998586535	2	49	3645284.343	68.75	0.4923618999309838	1	0
427.9668904687278	0.8132556998170912	1	49	3645284.995	50	0.3308918997645378	1	0
428.7801461685449	0.8209534999914467	2	49	3645286.231	100	0.7530050999484956	1	0
429.60109966853634	0.8108409000560641	2	49	3645286.873	75	0.5747708999551833	1	0
430.4119405685924	0.8140949001535773	2	49	3645287.624	68.75	0.5142661002464592	1	0
431.2260355	0.8213003999553621	2	49	3645288.56	87.5	0.6361612998880446	1	0
432.04733586870134	0.8116721	2	49	3645289.818	62.5	1.0727336001582444	2	0
432.8590079685673	0.8219826999120414	2	49	3645290.553	68.75	0.9959412002936006	2	0
433.68099066847935	0.8167050001211464	2	49	3645291.37	68.75	0.9912607003934681	2	0
434.4976956686005	0.8181556998752058	2	49	3645292.185	68.75	0.9893239000812173	2	0
435.3158513684757	0.8150218999944627	2	49	3645292.874	87.5	0.8602318000048399	2	0
436.13087326847017	0.8179913000203669	2	49	3645293.919	62.5	1.0903202001936734	2	0
436.94886456849054	0.8174680001102388	2	49	3645294.406	100	0.7594449003227055	1	0
437.7663325686008	0.8090043002739549	2	49	3645295.024	75	0.5598259000107646	1	0
438.57533686887473	0.8146558995358646	2	49	3645295.716	62.5	0.44280159985646605	1	0
439.3899927684106	0.8183908	1	0	0	0	0	0	0
440.20838356856257	0.8175957999192178	2	49	3645297.314	56.25	0.40773170022293925	1	0
441.0259793684818	0.8125098999589682	2	49	3645298.663	75	0.9392797001637518	2	0
441.83848926844075	0.8160445000976324	2	49	3645299.474	81.25	0.9380131000652909	2	0
442.6545337685384	0.8182569001801312	2	49	3645300.133	100	0.7806656	1	0
443.4727906687185	0.8112492999061942	1	49	3645300.882	93.75	0.7115492	1	0
444.2840399686247	0.8175955000333488	2	49	3645301.778	93.75	0.7961877998895943	2	0
445.10163546865806	0.8172765001654625	2	49	3645302.58	100	0.7810066998936236	1	0
445.9189119688235	0.8163860999047756	2	49	3645303.346	93.75	0.7294472996145487	1	0
446.7352980687283	0.8170765000395477	2	49	3645304.206	100	0.7732595	1	0
447.55237456876785	0.8154202997684479	2	49	3645305.041	93.75	0.7910185996443033	2	0
448.3677948685363	0.8129630000330508	2	49	3645305.664	81.25	0.5987468999810517	1	0
449.18075786856934	0.8205181	2	49	3645306.349	62.5	0.47071680007502437	1	0
450.0012759687379	0.8173660999163985	2	49	3645307.171	62.5	0.47216180013492703	1	0
450.8186420686543	0.8222087998874485	2	49	3645308.602	62.5	1.0859711999073625	2	0
451.64085086854175	0.8176819998770952	2	49	3645309.199	87.5	0.8601143001578748	2	0
452.45853286841884	0.8124908	2	49	3645309.886	93.75	0.7299984004348516	1	0
453.27102366881445	0.8191602998413146	2	49	3645310.565	81.25	0.5965784997679293	1	0
454.09018396865577	0.8128518997691572	1	49	3645311.463	87.5	0.6755006997846067	1	0
454.9030358684249	0.8205153001472354	2	49	3645312.449	87.5	0.8485739002935588	2	0
455.72355116857216	0.8226632000878453	2	49	3645312.971	75	0.5497993002645671	1	0
456.5462144	0.8099643001332879	2	49	3645313.781	75	0.5374686000868678	1	0
457.3561786687933	0.8157564997673035	2	49	3645314.951	81.25	0.8975978996604681	2	0
458.1719351685606	0.8130930000916123	2	49	3645315.504	87.5	0.6348370001651347	1	0
458.9850281686522	0.8155217999592423	2	49	3645316.346	87.5	0.6636633998714387	1	0
459.80054996861145	0.8144539999775589	2	49	3645317.433	81.25	0.9351559998467565	2	0
460.615004	0.8119075000286102	2	49	3645318.193	87.5	0.8804389000870287	2	0
461.4269114686176	0.8195123001933098	2	49	3645318.936	93.75	0.8114820998162031	2	0
462.2464237688109	0.8102528997696936	2	49	3645319.71	100	0.7655624998733401	1	0
463.0566766685806	0.8167444001883268	2	49	3645320.561	93.75	0.8066115998663008	2	0
463.87342106876895	0.8152941	2	49	3645321.336	100	0.7654427997767925	1	0
464.6887151687406	0.8196908999234438	2	49	3645322.235	87.5	0.8491314998827875	2	0
465.50840606866404	0.8125125002115965	2	49	3645323.064	87.5	0.8582811001688242	2	0
466.32091856887564	0.8161549996584654	2	49	3645323.907	87.5	0.8880600999109447	2	0
467.1370735685341	0.8164579002186656	2	49	3645324.676	93.75	0.8410729002207518	2	0
467.9535314687528	0.8178407996892929	2	49	3645325.611	75	0.9596007997170091	2	0
468.77137226844206	0.8180267000570893	2	49	3645326.359	81.25	0.8895745002664626	2	0
469.58939896849915	0.8128565000370145	1	0	0	0	0	0	0
470.40225546853617	0.8203027001582086	2	49	3645327.936	93.75	0.8358265003189445	2	0
471.2225581686944	0.8153792000375688	2	49	3645328.615	93.75	0.6945291	1	0
472.03793736873195	0.8112745997495949	1	49	3645329.209	62.5	0.4734851000830531	1	0
472.84921196848154	0.8204089002683759	2	49	3645330.25	93.75	0.7034155000001192	1	0
473.6696208687499	0.8183895000256598	2	49	3645331.377	68.75	1.0100038996897638	2	0
474.4880103687756	0.8211941998451948	2	49	3645331.935	100	0.7492581997066736	1	0
475.30920456862077	0.8159682000987232	2	49	3645332.541	75	0.5339700002223253	1	0
476.1251727687195	0.8152386997826397	2	49	3645333.768	75	0.9450523997657001	2	0
476.94041146850213	0.8160002999939024	2	49	3645334.448	93.75	0.8101713000796735	2	0
477.75641176849604	0.8124269000254571	2	49	3645335.092	87.5	0.6378333000466228	1	0
478.5688386685215	0.8116193	2	49	3645336.345	62.5	1.0786669999361038	2	0
479.3804579684511	0.8206884004175663	2	49	3645337.266	50	1.187569800298661	2	0
480.20114636886865	0.8187260995618999	1	49	3645337.831	81.25	0.9321987996809185	2	0
481.01987246843055	0.8171334001235664	2	49	3645338.647	81.25	0.9294202	2	0
481.8370058685541	0.8123498000204563	2	49	3645339.186	87.5	0.6517047001980245	1	0
482.6493556685746	0.8135943002998829	2	49	3645339.986	87.5	0.6390203000046313	1	0
483.46294996887445	0.8156975996680558	2	49	3645341.121	75	0.9599552997387946	2	0
484.2786475685425	0.8153595998883247	2	49	3645341.843	87.5	0.8668507998809218	2	0
485.09400716843084	0.8224847000092268	1	49	3645342.407	81.25	0.6154928002506495	1	0
485.91649186844006	0.8134449003264308	2	49	3645343.73	56.25	1.1154741002246737	2	0
486.7299367687665	0.8189821997657418	2	49	3645344.177	100	0.7495145997963846	1	0
487.54891896853223	0.8130630999803543	1	49	3645344.733	68.75	0.4868224998936057	1	0
488.3619820685126	0.8125575	2	49	3645345.809	100	0.7496994002722204	1	0
489.1745396	0.8155343998223543	1	49	3645346.607	93.75	0.7350918999873102	1	0
489.99007396865636	0.8187637999653816	2	49	3645347.489	93.75	0.8015887001529336	2	0
490.80883776862174	0.8149223998188972	2	49	3645348.134	81.25	0.6278230999596417	1	0
491.62376016844064	0.8172297002747655	1	0	0	0	0	0	0
492.4409898687154	0.8118599997833371	2	49	3645349.528	56.25	0.38984249997884035	1	0
493.25284986849874	0.8177633001469076	2	49	3645350.919	75	0.9688699999824166	2	0
494.07061316864565	0.8161188000813127	2	49	3645351.507	100	0.7391491997987032	1	0
494.88673196872696	0.8203022996895015	2	49	3645352.261	87.5	0.6771283000707626	1	0
495.70703426841646	0.8251407002098858	2	49	3645352.997	81.25	0.5918596000410616	1	0
496.53217496862635	0.8082862	2	49	3645353.814	81.25	0.5846930998377502	1	0
497.3404611684382	0.8217563000507653	2	49	3645354.573	75	0.5353010003454983	1	0
498.16221746848896	0.8151933001354337	2	49	3645355.34	62.5	0.4806357999332249	1	0
498.9774107686244	0.8177910000085831	2	49	3645356.133	62.5	0.45755100017413497	1	0
499.7952018	0.8168639000505209	2	49	3645356.81	43.75	0.31682580010965466	1	0
500.6120656686835	0.8129408000968397	2	49	3645358.249	81.25	0.9389459998346865	2	0
501.42500646878034	0.8108914000913501	2	49	3645358.963	87.5	0.8399934996850789	2	0
502.2358978688717	0.8198731997981668	2	49	3645359.639	93.75	0.7052429998293519	1	0
503.05577106866986	0.8106984999030828	2	49	3645360.448	93.75	0.6941331997513771	1	0
503.86646956857294	0.8154160999692976	2	49	3645361.45	81.25	0.8857133002020419	2	0
504.68188566854224	0.8154368000105023	1	49	3645362.131	100	0.7516339002177119	1	0
505.49732246855274	0.8158987001515925	2	0	0	0	0	0	0
506.31322116870433	0.8172061997465789	2	0	0	0	0	0	0
507.1304273684509	0.8179692002013326	2	0	0	0	0	0	0
507.94839656865224	0.8207279997877777	1	0	0	0	0	0	0
508.7691246	0.8191693001426756	2	0	0	0	0	0	0
509.5882938685827	0.8121869000606239	1	0	0	0	0	0	0
510.4004807686433	n/a	0	0	0	0	0	0	0