onset	duration	cue	constant1	timestamp	stimulus_coherence	response_time	response	constant2
0.0905661	0.7991198003292084	2	49	3440489.511	81.25	0.8831422002986073	2	0
0.8896859004162252	0.8005549996159971	2	49	3440490.262	87.5	0.8346803998574615	2	0
1.6902409000322223	0.8012163	1	0	0	0	0	0	0
2.4914572001434863	0.7995198001153767	2	49	3440491.742	93.75	0.7133800000883639	1	0
3.290977000258863	0.7986471001058817	2	49	3440492.506	93.75	0.6779767000116408	1	0
4.089624100364745	0.7991732996888459	2	49	3440493.369	100	0.7423049998469651	1	0
4.8887974000535905	0.7979487	2	49	3440494.267	87.5	0.8410885003395379	2	0
5.6867461004294455	0.8210607999935746	2	49	3440495.045	93.75	0.8212251998484135	2	0
6.5078069	0.7986783999949694	2	49	3440495.8	100	0.7552281999960542	1	0
7.3064853004179895	0.7971680997870862	2	49	3440496.691	87.5	0.8475490999408066	2	0
8.103653400205076	0.8003512998111546	2	49	3440497.518	81.25	0.8771801	2	0
8.9040047	0.7949677002616227	2	49	3440498.346	81.25	0.9040412004105747	2	0
9.698972400277853	0.7945375	2	49	3440499.205	68.75	0.9689969001337886	2	0
10.493509900290519	0.7959296000190079	2	49	3440499.887	87.5	0.8562090001069009	2	0
11.289439500309527	0.7983049000613391	2	49	3440500.861	62.5	1.0337291997857392	2	0
12.087744400370866	0.7985338000580668	2	49	3440501.477	87.5	0.8514117	2	0
12.886278200428933	0.7979977997019887	2	49	3440502.267	87.5	0.8432578	2	0
13.684276000130922	0.7994373003020883	2	49	3440503.194	68.75	0.9720903001725674	2	0
14.48371330043301	0.7991889	1	0	0	0	0	0	0
15.282902200240642	0.7984981997869909	2	49	3440504.472	87.5	0.6514201001264155	1	0
16.081400400027633	0.7986002000980079	2	49	3440505.352	100	0.7332815	1	0
16.88000060012564	0.7997369999065995	2	49	3440506.082	87.5	0.6647756001912057	1	0
17.67973760003224	0.7998947999440134	2	49	3440507.087	87.5	0.8699369002133608	2	0
18.479632399976254	0.7989151002839208	1	0	0	0	0	0	0
19.278547500260174	0.7991296001709998	2	49	3440508.393	81.25	0.5766742001287639	1	0
20.077677100431174	0.7977999998256564	2	49	3440509.16	75	0.5443644998595119	1	0
20.87547710025683	0.7968285	2	49	3440510.17	100	0.7571523999795318	1	0
21.672305600252002	0.8001489001326263	2	49	3440510.997	93.75	0.7874549999833107	2	0
22.47245450038463	0.7980025997385383	1	0	0	0	0	0	0
23.270457100123167	0.8004601001739502	2	49	3440512.376	75	0.5679258001036942	1	0
24.070917200297117	0.7981165000237525	1	49	3440513.243	87.5	0.6344214999116957	1	0
24.86903370032087	0.8026588996872306	2	49	3440514.178	100	0.7713790996931493	1	0
25.6716926	0.7978656999766827	2	49	3440514.848	87.5	0.6387906	1	0
26.469558299984783	0.7991580003872514	2	49	3440515.721	93.75	0.7136982004158199	1	0
27.268716300372034	0.798718	1	0	0	0	0	0	0
28.067434300202876	0.7964324997738004	2	49	3440517.138	75	0.5333293001167476	1	0
28.863866799976677	0.7978888000361621	2	49	3440518.083	93.75	0.6816332000307739	1	0
29.66175560001284	0.7993862	2	49	3440518.916	93.75	0.7167539000511169	1	0
30.461141800042242	0.7973666000179946	2	49	3440519.837	87.5	0.8384984000585973	2	0
31.258508400060236	0.7999059003777802	2	49	3440520.684	81.25	0.8881264999508858	2	0
32.05841430043802	0.7988769998773932	2	49	3440521.438	87.5	0.8422442995943129	2	0
32.85729130031541	0.7986257998272777	2	49	3440522.212	93.75	0.8173932	2	0
33.65591710014269	0.8000151002779603	2	49	3440523.15	75	0.9570495998486876	2	0
34.45593220042065	0.8001765999943018	2	49	3440523.918	75	0.9247946999967098	2	0
35.25610880041495	0.7981090997345746	2	0	0	0	0	0	0
36.054217900149524	0.7972685000859201	2	49	3440525.055	62.5	0.46364110009744763	1	0
36.851486400235444	0.7962352000176907	2	49	3440525.976	81.25	0.5872157	1	0
37.647721600253135	0.7974787000566721	2	49	3440526.83	87.5	0.6451081000268459	1	0
38.44520030030981	0.7993493997491896	2	49	3440527.897	81.25	0.9147938997484744	2	0
39.2445497	0.7989153	2	49	3440528.551	100	0.7687552003189921	1	0
40.04346500011161	0.7984733	2	49	3440529.35	100	0.7687841	1	0
40.841938300058246	0.7987574003636837	2	49	3440530.143	100	0.7639394	1	0
41.64069570042193	0.7973771998658776	2	49	3440530.854	93.75	0.6762245995923877	1	0
42.43807290028781	0.8005305998958647	2	49	3440531.638	87.5	0.6629018997773528	1	0
43.23860350018367	0.7999578001908958	1	0	0	0	0	0	0
44.03856130037457	0.7996691996231675	2	49	3440533.162	81.25	0.5855630999431014	1	0
44.838230499997735	0.7986778002232313	1	0	0	0	0	0	0
45.636908300220966	0.7986457999795675	2	49	3440534.796	87.5	0.6211995999328792	1	0
46.435554100200534	0.8007892998866737	2	49	3440535.663	93.75	0.6901174001395702	1	0
47.23634340008721	0.7976832003332675	2	49	3440536.777	68.75	1.003035600297153	2	0
48.034026600420475	0.8011052999645472	2	49	3440537.383	93.75	0.8112422996200621	2	0
48.83513190038502	0.7961235996335745	2	49	3440538.189	93.75	0.8162276996299624	2	0
49.6312555	0.8004875001497567	2	49	3440538.985	93.75	0.8158680000342429	2	0
50.43174300016835	0.7981735998764634	2	49	3440539.822	87.5	0.8527414998970926	2	0
51.22991660004482	0.7983949999324977	2	49	3440540.641	81.25	0.8732289001345634	2	0
52.028311599977314	0.7995094	2	49	3440541.463	81.25	0.8975818	2	0
52.827821	0.7977543002925813	2	49	3440542.17	93.75	0.8043147004209459	2	0
53.62557530030608	0.7995752999559045	2	49	3440542.839	93.75	0.6756547996774316	1	0
54.425150600261986	0.7982668001204729	1	0	0	0	0	0	0
55.22341740038246	0.7985581997781992	2	49	3440544.577	93.75	0.8161569000221789	2	0
56.02197560016066	0.7991897999309003	2	49	3440545.275	93.75	0.7157523999921978	1	0
56.82116540009156	0.7996098999865353	2	49	3440546.273	81.25	0.9143056999891996	2	0
57.620775300078094	0.7980646002106369	2	49	3440546.923	100	0.7646849001757801	1	0
58.41883990028873	0.7958105998113751	1	49	3440547.697	100	0.7402154998853803	1	0
59.214650500100106	0.8003243999555707	1	0	0	0	0	0	0
60.01497490005568	0.7974560000002384	1	0	0	0	0	0	0
60.812430900055915	0.7981183999218047	2	49	3440550.148	93.75	0.7981456001289189	2	0
61.61054929997772	0.8004782004281878	2	49	3440550.923	93.75	0.7748493002727628	2	0
62.41102750040591	0.7983833998441696	2	49	3440551.822	81.25	0.8735927999950945	2	0
63.20941090025008	0.7988533000461757	2	49	3440552.604	87.5	0.8573218998499215	2	0
64.00826420029625	0.8003640999086201	2	49	3440553.364	93.75	0.8186006001196802	2	0
64.80862830020487	0.7989563001319766	2	49	3440554.134	93.75	0.7879265998490155	2	0
65.60758460033685	0.7982735000550747	2	49	3440555.083	75	0.9374659000895917	2	0
66.40585810039192	0.7970868996344507	2	49	3440555.643	93.75	0.6998274996876717	1	0
67.20294500002638	0.7990896003320813	2	49	3440556.468	100	0.7277865000069141	1	0
68.00203460035846	0.7991957999765873	1	0	0	0	0	0	0
68.80123040033504	0.7988133998587728	2	49	3440558.023	93.75	0.6842060997150838	1	0
69.60004380019382	0.7977823000401258	2	49	3440558.77	87.5	0.6327730999328196	1	0
70.39782610023394	0.7989241001196206	2	49	3440559.649	93.75	0.7140386998653412	1	0
71.19675020035356	0.7983744000084698	2	49	3440560.393	87.5	0.6592775	1	0
71.99512460036203	0.7986043998971581	2	49	3440561.251	93.75	0.7182211000472307	1	0
72.79372900025919	0.7985764001496136	2	49	3440562.088	100	0.7570607997477055	1	0
73.5923054	0.7987004998140037	2	49	3440563.124	68.75	0.9938081000000238	2	0
74.39100590022281	0.7982574999332428	1	0	0	0	0	0	0
75.18926340015605	0.7986053000204265	2	49	3440564.489	100	0.7626172001473606	1	0
75.98786870017648	0.8009628998115659	2	49	3440565.356	87.5	0.8311069002375007	2	0
76.78883159998804	0.7991363001056015	2	49	3440566.094	100	0.7682017	1	0
77.58796790009364	0.7998707	2	49	3440567.059	75	0.9331248002126813	2	0
78.3878386	0.7987138000316918	2	49	3440567.801	81.25	0.8761689001694322	2	0
79.18655240023509	0.7990032001398504	2	49	3440568.594	81.25	0.8696318999864161	2	0
79.98555560037494	0.7985347998328507	2	49	3440569.734	43.75	1.2105451999232173	2	0
80.78409040020779	0.7989956000819802	1	0	0	0	0	0	0
81.58308600028977	0.7984233000315726	1	0	0	0	0	0	0
82.38150930032134	0.7988454001024365	2	49	3440571.805	81.25	0.8856358998455107	2	0
83.18035470042378	0.7980774999596179	2	49	3440572.455	100	0.7370388996787369	1	0
83.9784322	0.8007312999106944	2	49	3440573.147	87.5	0.6309287999756634	1	0
84.77916350029409	0.7992684999480844	1	49	3440574.019	93.75	0.7020437000319362	1	0
85.57843200024217	0.7991336998529732	2	49	3440574.95	87.5	0.8341839998029172	2	0
86.37756570009515	0.7988855000585318	2	49	3440575.656	100	0.7409892999567091	1	0
87.17645120015368	0.8000162001699209	2	49	3440576.497	93.75	0.7828457001596689	2	0
87.9764674	0.8013745998032391	2	49	3440577.386	81.25	0.8717939998023212	2	0
88.77784200012684	0.7994041000492871	2	49	3440578.277	75	0.9619216001592577	2	0
89.57724610017613	0.7989199999719858	2	49	3440578.925	93.75	0.8106344002299011	2	0
90.37616610014811	0.7996744001284242	1	0	0	0	0	0	0
91.17584050027654	0.7983849	2	49	3440580.348	87.5	0.6344592999666929	1	0
91.97422540001571	0.7972121	2	49	3440581.275	100	0.7635126002132893	1	0
92.77143750013784	0.7985123000107706	2	49	3440582.235	75	0.9260478001087904	2	0
93.5699498	0.7963481000624597	2	49	3440582.957	87.5	0.8495479002594948	2	0
94.36629790021107	0.7999440999701619	2	49	3440583.908	68.75	1.004299100022763	2	0
95.16624200018123	0.7975082001648843	2	49	3440584.596	81.25	0.8925346001051366	2	0
95.96375020034611	0.7978984997607768	2	49	3440585.49	68.75	0.9888185	2	0
96.76164870010689	0.8007807000540197	2	0	0	0	0	0	0
97.56242940016091	0.7994678001850843	2	49	3440586.766	87.5	0.6662811	1	0
98.3618972	0.7985497997142375	2	49	3440587.619	100	0.7198280999436975	1	0
99.16044700006023	0.7988881003111601	2	49	3440588.671	68.75	0.9730903003364801	2	0
99.95933510037139	0.7989098997786641	2	49	3440589.357	87.5	0.8600271996110678	2	0
100.75824500015005	0.7999160001054406	2	49	3440590.344	62.5	1.0478139999322593	2	0
101.5581610002555	0.7998055000789464	1	0	0	0	0	0	0
102.35796650033444	0.8003902998752892	2	49	3440591.755	87.5	0.8597794999368489	2	0
103.15835680020973	0.7977346000261605	2	49	3440592.472	93.75	0.7765175001695752	2	0
103.95609140023589	0.7997341998852789	1	0	0	0	0	0	0
104.75582560012117	0.7987764002755284	2	49	3440594.043	100	0.7502099	1	0
105.5546020003967	0.7981382999569178	1	0	0	0	0	0	0
106.35274030035362	0.7978924000635743	2	49	3440595.441	75	0.5508703999221325	1	0
107.15063270041719	0.7983263996429741	2	49	3440596.37	93.75	0.6822877	1	0
107.94895910006016	0.7982300003059208	2	49	3440597.11	81.25	0.6240551001392305	1	0
108.74718910036609	0.7992208	2	49	3440598.008	100	0.7236053	1	0
109.5464099003002	0.8021684996783733	2	49	3440598.858	93.75	0.7744566	2	0
110.34857839997858	0.7989716003648937	2	49	3440599.676	93.75	0.7896970002911985	2	0
111.14755000034347	0.8002410000190139	2	49	3440600.637	75	0.9516002000309527	2	0
111.94779100036249	0.8006271999329329	2	49	3440601.35	87.5	0.8643497000448406	2	0
112.74841820029542	0.8002208997495472	2	49	3440602.048	100	0.7625750997103751	1	0
113.54863910004497	0.7991723003797233	2	49	3440603.007	75	0.9204744999296963	2	0
114.34781140042469	0.7979594999924302	2	49	3440603.691	93.75	0.8053836999461055	2	0
115.14577090041712	0.7982240999117494	2	49	3440604.678	68.75	0.9946571	2	0
115.94399500032887	0.7973776999861002	2	49	3440605.417	75	0.9351224997080863	2	0
116.74137270031497	0.7982532996684313	2	49	3440606.076	93.75	0.7974485997110605	2	0
117.5396259999834	0.7984867002815008	2	49	3440607.078	68.75	1.0005059000104666	2	0
118.3381127002649	0.7974622999317944	2	49	3440607.815	75	0.9390508001670241	2	0
119.1355750001967	0.7986862999387085	2	49	3440608.424	100	0.7505181999877095	1	0
119.9342613001354	0.8004935998469591	2	49	3440609.175	93.75	0.7030418002977967	1	0
120.73475489998236	0.8002280001528561	2	49	3440609.994	100	0.7213978003710508	1	0
121.53498290013522	0.7983964001759887	2	49	3440610.817	100	0.7444235999137163	1	0
122.33337930031121	0.7990446998737752	2	49	3440611.69	93.75	0.8189354999922216	2	0
123.13242400018498	0.7983586001209915	2	49	3440612.42	100	0.7499625999480486	1	0
123.93078260030597	0.8007319997996092	2	49	3440613.464	68.75	0.9958554999902844	2	0
124.73151460010558	0.7977407001890242	2	49	3440614.141	81.25	0.8717865999788046	2	0
125.52925530029461	0.7987015000544488	1	49	3440614.918	87.5	0.8511727997101843	2	0
126.32795680034906	0.7983172996900976	1	0	0	0	0	0	0
127.12627410003915	0.7981067001819611	2	49	3440616.367	93.75	0.7030309000983834	1	0
127.92438080022112	0.7992246001958847	2	49	3440617.024	75	0.5625053998082876	1	0
128.7236054	0.8001945000141859	2	49	3440617.894	87.5	0.6330291000194848	1	0
129.5237999004312	0.7979472996667027	2	49	3440618.743	93.75	0.6816930999048054	1	0
130.3217472000979	0.7975521	2	49	3440619.749	81.25	0.8897866001352668	2	0
131.11929930001497	0.7979859001934528	2	49	3440620.525	87.5	0.8681943002156913	2	0
131.91728520020843	0.7997075999155641	2	49	3440621.3	87.5	0.8454720000736415	2	0
132.7169928	0.7993057002313435	2	49	3440622.302	62.5	1.047058700118214	2	0
133.51629850035533	0.7989674997515976	2	49	3440622.953	81.25	0.8992031998932362	2	0
134.31526600010693	0.7979867001995444	2	49	3440623.644	93.75	0.7914324998855591	2	0
135.11325270030648	0.7981024999171495	2	49	3440624.376	100	0.7252388000488281	1	0
135.91135520022362	0.7974339001812041	2	49	3440625.401	75	0.9525648	2	0
136.70878910040483	0.8001734996214509	2	49	3440626.198	75	0.9519125996157527	2	0
137.50896260002628	0.7982005001977086	2	49	3440626.982	75	0.9360699001699686	2	0
138.3071631	0.8006743001751602	2	49	3440627.718	81.25	0.8737924001179636	2	0
139.10783740039915	0.8002855996601284	2	49	3440628.465	93.75	0.8199346996843815	2	0
139.90812300005928	0.7992476001381874	2	49	3440629.264	93.75	0.8188815000467002	2	0
140.70737060019746	0.8016086998395622	2	49	3440630.064	93.75	0.8192695998586714	2	0
141.50897930003703	0.7985158003866673	1	0	0	0	0	0	0
142.3074951004237	0.7997593996115029	2	49	3440631.614	100	0.7693754998035729	1	0
143.1072545000352	0.799701	1	0	0	0	0	0	0
143.90695550013334	0.7989512998610735	1	0	0	0	0	0	0
144.7059067999944	0.7977927001193166	2	49	3440634.243	68.75	0.9999594003893435	2	0
145.50369950011373	0.7989521999843419	2	49	3440634.818	93.75	0.7772699003107846	2	0
146.30265170009807	0.7987098000012338	2	49	3440635.544	93.75	0.7038363	1	0
147.1013615000993	0.7995743001811206	2	49	3440636.461	87.5	0.8216809001751244	2	0
147.90093580028042	0.8003257000818849	2	49	3440637.155	93.75	0.7163410997018218	1	0
148.7012615003623	0.7991184997372329	2	49	3440637.93	93.75	0.6907961997203529	1	0
149.50038000009954	0.7977753	2	49	3440638.734	93.75	0.6962526999413967	1	0
150.2981553003192	0.7997963	2	49	3440639.533	93.75	0.6972884000279009	1	0
151.0979516003281	0.7983848000876606	2	49	3440640.432	93.75	0.7967542996630073	2	0
151.89633640041575	0.7990240999497473	2	49	3440641.338	81.25	0.9039979996159673	2	0
152.6953605003655	0.7986856000497937	2	49	3440642.107	81.25	0.8738187998533249	2	0
153.4940461004153	0.7988103996030986	1	0	0	0	0	0	0
154.2928565000184	0.7990178000181913	2	49	3440643.583	100	0.7523248000070453	1	0
155.09187430003658	0.7986365002579987	2	49	3440644.293	87.5	0.6637699003331363	1	0
155.89051080029458	0.7977670999243855	2	49	3440645.191	100	0.7628973997198045	1	0
156.68827790021896	0.7987477001734078	2	49	3440646.259	62.5	1.0334132998250425	2	0
157.48702560039237	0.8001138996332884	2	49	3440646.92	81.25	0.8959543998353183	2	0
158.28713950002566	0.8000292000360787	2	49	3440647.59	100	0.7651483002118766	1	0
159.08716870006174	0.7987585002556443	2	49	3440648.492	87.5	0.8673569	2	0
159.88592720031738	0.7991450000554323	2	49	3440649.416	68.75	0.9930515997111797	2	0
160.68507220037282	0.7977351997978985	2	49	3440650.434	43.75	1.2115187998861074	2	0
161.4828074001707	0.8006569999270141	2	0	0	0	0	0	0
162.28346440009773	0.7991927000693977	2	49	3440651.428	81.25	0.6072534001432359	1	0
163.08265710016713	0.7999281	2	49	3440652.379	100	0.7587319002486765	1	0
163.88258520001546	0.7979883002117276	1	0	0	0	0	0	0
164.68057350022718	0.7989908000454307	2	49	3440654.068	87.5	0.8499989002011716	2	0
165.4795643002726	0.7983542997390032	2	49	3440654.895	81.25	0.8779688999056816	2	0
166.27791860001162	0.7995784999802709	2	49	3440655.734	81.25	0.9186014	2	0
167.0774970999919	0.7997424001805484	2	49	3440656.64	62.5	1.0250091003254056	2	0
167.87723950017244	0.7979505998082459	2	49	3440657.394	68.75	0.9794375002384186	2	0
168.67519009998068	0.7983359000645578	1	0	0	0	0	0	0
169.47352600004524	0.8003042000345886	2	49	3440658.901	81.25	0.8901440999470651	2	0
170.27383020007983	0.7978431000374258	2	49	3440659.899	56.25	1.0879403003491461	2	0
171.07167330011725	0.7992131002247334	2	49	3440660.586	68.75	0.9771144	2	0
171.8708864	0.7982508996501565	2	49	3440661.309	81.25	0.9010113999247551	2	0
172.66913729999214	0.8011803003028035	2	49	3440662.05	87.5	0.8435900001786649	2	0
173.47031760029495	0.8014635997824371	2	49	3440662.805	93.75	0.797389	2	0
174.27178120007738	0.7992042	2	49	3440663.811	68.75	1.0020042001269758	2	0
175.07098540011793	0.7988514001481235	2	49	3440664.73	50	1.1219414002262056	2	0
175.86983680026606	0.7993628000840545	2	0	0	0	0	0	0
176.6691996003501	0.7980366996489465	2	49	3440665.758	75	0.5516964	1	0
177.46723629999906	0.7984605003148317	2	49	3440666.585	81.25	0.5806152001023293	1	0
178.2656968003139	0.7988024	2	49	3440667.488	93.75	0.6845967997796834	1	0
179.06449920032173	0.7982410998083651	2	49	3440668.529	75	0.9273867998272181	2	0
179.8627403001301	0.7990152002312243	2	49	3440669.442	62.5	1.0421938998624682	2	0
180.66175550036132	0.8013648996129632	2	49	3440670.381	43.75	1.181307699996978	2	0
181.4631203999743	0.7990111000835896	2	0	0	0	0	0	0
182.26213150005788	0.7971996003761888	2	49	3440671.32	75	0.5202498002909124	1	0
183.05933110043406	0.7989471	1	0	0	0	0	0	0
183.85827820003033	0.7975171003490686	2	49	3440672.947	75	0.5509410002268851	1	0
184.6557953003794	0.7994967000558972	2	49	3440673.935	100	0.7413356998004019	1	0
185.4552920004353	0.7998464996926486	1	0	0	0	0	0	0
186.25513850012794	0.799359	2	49	3440675.539	100	0.7459793998859823	1	0
187.0544975004159	0.7988837	2	49	3440676.618	62.5	1.025648099835962	2	0
187.8533812002279	0.7990319998934865	2	0	0	0	0	0	0
188.65241320012137	0.7988535002805293	2	49	3440677.719	75	0.5294854999519885	1	0
189.4512667004019	0.8002182999625802	2	49	3440678.46	68.75	0.47112669982016087	1	0
190.25148500036448	0.7998323999345303	2	49	3440679.387	81.25	0.5978196999058127	1	0
191.0513174	0.7985279997810721	2	49	3440680.231	87.5	0.6420247000642121	1	0
191.84984540008008	0.7982355002313852	2	49	3440681.237	87.5	0.8494402999058366	2	0
192.64808090031147	0.8010750999674201	2	49	3440682.123	75	0.9370422000065446	2	0
193.4491560002789	0.7986503997817636	2	49	3440682.875	81.25	0.8888137000612915	2	0
194.24780640006065	0.8008984001353383	2	49	3440683.683	81.25	0.8977530002593994	2	0
195.0487048	0.7994908997789025	2	49	3440684.441	87.5	0.8547707	2	0
195.8481956999749	0.7979419003240764	2	49	3440685.399	68.75	1.0134334000758827	2	0
196.64613760029897	0.7974728997796774	2	49	3440686.272	56.25	1.088490900117904	2	0
197.44361050007865	0.8000085	2	49	3440687.155	43.75	1.1738378000445664	2	0
198.24361900007352	0.7987456	2	0	0	0	0	0	0
199.04236460011452	0.7978232000023127	2	49	3440688.057	68.75	0.4771592002362013	1	0
199.84018780011684	0.7991614	2	49	3440688.91	75	0.5323347002267838	1	0
200.63934920029715	0.7997372001409531	2	49	3440689.931	100	0.7544780997559428	1	0
201.4390864004381	0.7988943997770548	2	49	3440690.826	87.5	0.8491607997566462	2	0
202.23798080021515	0.8007132	2	49	3440691.523	100	0.7479821001179516	1	0
203.03869400033727	0.7998665999621153	2	49	3440692.444	87.5	0.8680050000548363	2	0
203.8385606002994	0.7998131001368165	2	49	3440693.304	75	0.9282092996872962	2	0
204.6383737004362	0.8000998999923468	2	49	3440694.036	87.5	0.8603969998657703	2	0
205.43847360042855	0.7995212995447218	1	0	0	0	0	0	0
206.23799489997327	0.7992137004621327	2	49	3440695.505	100	0.7297371001914144	1	0
207.0372086004354	0.8004443999379873	2	49	3440696.439	87.5	0.8647400997579098	2	0
207.8376530003734	0.7993044997565448	2	49	3440697.265	81.25	0.8903592997230589	2	0
208.63695750012994	0.7977208001539111	2	49	3440698.337	50	1.1630246001295745	2	0
209.43467830028385	0.7988925999961793	2	49	3440699.144	43.75	1.172144299838692	2	0
210.23357090028003	0.7990474	2	0	0	0	0	0	0
211.03261830005795	0.7975743999704719	2	49	3440700.22	87.5	0.6503456002101302	1	0
211.83019270002842	0.7990665002726018	2	49	3440701.215	87.5	0.8472619000822306	2	0
212.62925920030102	0.7997236996889114	2	49	3440701.995	87.5	0.828641	2	0
213.42898289998993	0.7978729	2	49	3440702.609	87.5	0.6427086000330746	1	0
214.22685580002144	0.7981565003283322	2	49	3440703.799	62.5	1.0343759004026651	2	0
215.02501230034977	0.7991207996383309	2	0	0	0	0	0	0
215.8241330999881	0.8003379004076123	2	49	3440704.889	75	0.5278704003430903	1	0
216.62447100039572	0.8002147	2	49	3440705.713	75	0.5507671996019781	1	0
217.42468570033088	0.7982538999058306	2	49	3440706.477	68.75	0.5144750997424126	1	0
218.2229396002367	0.7996764001436532	1	0	0	0	0	0	0
219.02261600038037	0.8019880000501871	2	49	3440708.222	87.5	0.661719	1	0
219.82460400043055	0.8000454995781183	1	49	3440708.994	87.5	0.6314796996302903	1	0
220.62464950000867	0.7996827000752091	2	49	3440709.795	87.5	0.6325880000367761	1	0
221.42433220008388	0.7993431999348104	2	49	3440710.581	81.25	0.6196592999622226	1	0
222.2236754000187	0.7994777001440525	2	49	3440711.461	93.75	0.6996838999912143	1	0
223.02315310016274	0.7994574001058936	2	49	3440712.414	87.5	0.8530273	2	0
223.82261050026864	0.7989138998091221	2	49	3440713.149	93.75	0.7889323998242617	2	0
224.62152440007776	0.8006390002556145	2	49	3440713.911	100	0.7519327001646161	1	0
225.42216340033337	0.7994726998731494	2	49	3440714.747	93.75	0.7871306999586523	2	0
226.22163610020652	0.7990064001642168	1	49	3440715.592	87.5	0.8326987000182271	2	0
227.02064250037074	0.7991708000190556	2	49	3440716.145	81.25	0.5864593000151217	1	0
227.8198133003898	0.7997240000404418	2	49	3440716.926	75	0.5688435998745263	1	0
228.61953730043024	0.7994707999750972	1	0	0	0	0	0	0
229.41900810040534	0.7987814	2	49	3440718.895	75	0.9384468998759985	2	0
230.21778950002044	0.7980765	1	49	3440719.51	100	0.7546390001662076	1	0
231.01586600020528	0.8006702000275254	2	49	3440720.151	81.25	0.5978990001603961	1	0
231.8165362002328	0.7977840998210013	2	49	3440721.037	93.75	0.6827090000733733	1	0
232.6143203000538	0.8003607001155615	1	0	0	0	0	0	0
233.41468100016937	0.8030484	2	49	3440722.544	81.25	0.5922448001801968	1	0
234.21772940037772	0.7994816000573337	2	49	3440723.638	81.25	0.8826170996762812	2	0
235.01721100043505	0.7988449996337295	2	49	3440724.525	68.75	0.9705387996509671	2	0
235.81605600006878	0.7975782002322376	2	49	3440725.266	81.25	0.9125119000673294	2	0
236.61363420030102	0.7985874000005424	2	49	3440726.023	81.25	0.8721264000050724	2	0
237.41222160030156	0.7985570998862386	2	49	3440726.861	81.25	0.9113218998536468	2	0
238.2107787001878	0.7972710998728871	2	49	3440727.609	87.5	0.8608551002107561	2	0
239.0080498000607	0.7993944003246725	2	49	3440728.387	87.5	0.8417577999643981	2	0
239.80744420038536	0.7970693996176124	2	49	3440729.172	87.5	0.8273159000091255	2	0
240.60451360000297	0.7990681	2	49	3440730.161	62.5	1.019453200045973	2	0
241.40358170028776	0.7998134000226855	2	49	3440731.038	56.25	1.0973853999748826	2	0
242.20339510031044	0.7997904000803828	2	49	3440731.653	81.25	0.9126003	2	0
243.00318550039083	0.7992962999269366	2	49	3440732.556	68.75	1.0156414997763932	2	0
243.80248180031776	0.7974486998282373	2	49	3440733.517	43.75	1.1775042996741831	2	0
244.5999305	0.7998255998827517	2	0	0	0	0	0	0
245.39975610002875	0.7995899002999067	2	49	3440734.536	81.25	0.5988776003941894	1	0
246.19934600032866	0.7991273999214172	2	49	3440735.756	68.75	1.0187512999400496	2	0
246.99847340025008	0.7995595000684261	2	49	3440736.684	50	1.148352200165391	2	0
247.7980329003185	0.8011141000315547	2	49	3440737.162	87.5	0.8268492999486625	2	0
248.59914700035006	0.8002047999761999	2	49	3440737.987	87.5	0.8501607999205589	2	0
249.39935180032626	0.7989333998411894	2	49	3440738.894	75	0.9566998998634517	2	0
250.19828520016745	0.7997691999189556	2	49	3440739.613	81.25	0.8777291001752019	2	0
250.9980544000864	0.7975943	2	49	3440740.393	87.5	0.8573265001177788	2	0
251.7956487	0.7981266002170742	2	49	3440741.245	81.25	0.9115182999521494	2	0
252.59377530030906	0.7997650997713208	2	49	3440742.067	75	0.9357290999032557	2	0
253.39354040008038	0.7981262002140284	2	49	3440742.904	68.75	0.9725923999212682	2	0
254.1916666002944	0.7980602998286486	1	0	0	0	0	0	0
254.98972690012306	0.7985307001508772	2	49	3440744.527	68.75	0.9994300999678671	2	0
255.78825760027394	0.7980977	2	49	3440745.548	37.5	1.2219786001369357	2	0
256.58635530015454	0.7998418998904526	1	0	0	0	0	0	0
257.3861972	0.7998498999513686	2	49	3440746.568	87.5	0.6440611002035439	1	0
258.18604709999636	0.7998313000425696	2	0	0	0	0	0	0
258.9858784000389	0.7987828999757767	2	49	3440747.988	62.5	0.4643822000361979	1	0
259.7846613000147	0.7989705000072718	2	49	3440748.847	75	0.5246981	1	0
260.5836318	0.8003111002035439	2	49	3440749.706	81.25	0.5847132001072168	1	0
261.3839429002255	0.7975037000142038	2	49	3440750.614	93.75	0.6929008001461625	1	0
262.1814466002397	0.7979084001854062	2	49	3440751.479	100	0.7602391997352242	1	0
262.97935500042513	0.7972250999882817	2	49	3440752.276	100	0.7596079995855689	1	0
263.7765801004134	0.7975641000084579	2	49	3440753.165	87.5	0.8508400996215641	2	0
264.57414420042187	0.7982618999667466	1	0	0	0	0	0	0
265.3724061003886	0.7983105	1	0	0	0	0	0	0
266.17071660002694	0.7991933999583125	2	49	3440755.359	87.5	0.6509832004085183	1	0
266.96990999998525	0.7986841001547873	2	49	3440756.125	81.25	0.6176720000803471	1	0
267.76859410014004	0.7987987	2	49	3440757.125	93.75	0.8190808999352157	2	0
268.5673928000033	0.7994497	2	49	3440757.999	81.25	0.8940436001867056	2	0
269.3668425003998	0.7976879999041557	2	49	3440758.656	100	0.7519303	1	0
270.16453050030395	0.8004250996746123	2	49	3440759.426	93.75	0.7239663	1	0
270.96495559997857	0.8006354002282023	2	49	3440760.346	87.5	0.8438168000429869	2	0
271.76559100020677	0.7988685998134315	2	49	3440761.027	100	0.7241302002221346	1	0
272.5644596000202	0.7981569	2	49	3440761.778	93.75	0.6762267001904547	1	0
273.3626165003516	0.7964658997952938	2	49	3440762.617	100	0.7172781997360289	1	0
274.1590824001469	0.8010686999186873	2	49	3440763.561	87.5	0.8649285999126732	2	0
274.96015110006556	0.7998160002753139	2	49	3440764.545	62.5	1.0476140002720058	2	0
275.7599671003409	0.7985876998864114	2	49	3440765.137	87.5	0.8400260997004807	2	0
276.5585548002273	0.7981885997578502	2	49	3440765.928	87.5	0.8322493000887334	2	0
277.35674339998513	0.8005023002624512	2	49	3440766.819	75	0.9249663003720343	2	0
278.1572457002476	0.7984313000924885	2	49	3440767.749	62.5	1.0547643997706473	2	0
278.9556770003401	0.7988330996595323	2	49	3440768.369	81.25	0.8761849999427795	2	0
279.7545100999996	0.7990735000930727	1	49	3440769.016	100	0.7243794002570212	1	0
280.5535836000927	0.798915	2	49	3440769.831	100	0.7399634001776576	1	0
281.3524986002594	0.7984180999919772	2	49	3440770.545	87.5	0.6546267000958323	1	0
282.1509167002514	0.7980205998755991	2	0	0	0	0	0	0
282.9489373	0.7981723002158105	2	49	3440772.452	75	0.9659748999401927	2	0
283.7471096003428	0.7980329999700189	2	49	3440773.085	93.75	0.8000121000222862	2	0
284.54514260031283	0.7980498000979424	2	49	3440773.791	93.75	0.7079833000898361	1	0
285.34319240041077	0.7990291998721659	2	49	3440774.533	87.5	0.6527812997810543	1	0
286.14222160028294	0.8017053999938071	2	49	3440775.514	87.5	0.8341067000292242	2	0
286.94392700027674	0.7987949997186661	2	49	3440776.19	93.75	0.7086189	1	0
287.7427219999954	0.7986254002898932	2	49	3440777.183	81.25	0.9026465001516044	2	0
288.5413474002853	0.7985366000793874	2	49	3440777.794	93.75	0.7149044000543654	1	0
289.3398840003647	0.7983339000493288	2	49	3440778.56	93.75	0.6822350998409092	1	0
290.1382179	0.7984384996816516	2	49	3440779.544	87.5	0.8683002996258438	2	0
290.93665640009567	0.8000076999887824	1	0	0	0	0	0	0
291.73666410008445	0.7985847000963986	2	49	3440781.031	100	0.7565494999289513	1	0
292.53524880018085	0.8006815002299845	2	49	3440782.013	75	0.9404079001396894	2	0
293.33593030041084	0.7986416	2	49	3440782.688	93.75	0.8145042997784913	2	0
294.1345719001256	0.8001470998860896	2	49	3440783.313	87.5	0.6412144000642002	1	0
294.9347190000117	0.7995120002888143	2	49	3440784.082	81.25	0.6098584001883864	1	0
295.7342310003005	0.7980276	1	49	3440785.032	100	0.760071	1	0
296.53225859999657	0.7972267000004649	2	49	3440785.957	81.25	0.8871911000460386	2	0
297.32948529999703	0.7993419002741575	1	49	3440786.548	93.75	0.6813344000838697	1	0
298.1288272002712	0.7993636000901461	2	49	3440787.239	81.25	0.5726821999996901	1	0
298.92819080036134	0.7991844997741282	2	49	3440788.132	87.5	0.6663201996125281	1	0
299.72737530013546	0.7993534002453089	2	49	3440788.956	93.75	0.6911818999797106	1	0
300.5267287003808	0.8004446998238564	1	0	0	0	0	0	0
301.32717340020463	0.7979911002330482	2	49	3440790.497	87.5	0.6323620001785457	1	0
302.1251645004377	0.7987254997715354	2	49	3440791.415	100	0.7522878996096551	1	0
302.9238900002092	0.7983737997710705	2	49	3440792.207	100	0.7454887	1	0
303.7222637999803	0.7983795003965497	1	49	3440792.999	100	0.7394955004565418	1	0
304.52064330037683	0.7989067998714745	2	49	3440793.919	87.5	0.8608170999214053	2	0
305.3195501002483	0.7993859	1	0	0	0	0	0	0
306.11893600039184	0.7986437999643385	2	49	3440795.37	93.75	0.7139938999898732	1	0
306.9175798003562	0.7984410999342799	2	49	3440796.303	87.5	0.8483052998781204	2	0
307.71602090029046	0.7999995998106897	2	49	3440797.002	100	0.7490170998498797	1	0
308.51602050010115	0.7994727999903262	2	49	3440797.98	75	0.9268184001557529	2	0
309.3154933000915	0.7978854002431035	2	49	3440798.871	62.5	1.0183214000426233	2	0
310.1133787003346	0.7974694999866188	2	49	3440799.738	56.25	1.0873841000720859	2	0
310.9108482003212	0.7985282996669412	2	0	0	0	0	0	0
311.70937649998814	0.7984428000636399	2	49	3440800.734	68.75	0.48739370005205274	1	0
312.5078193000518	0.8009343999437988	1	0	0	0	0	0	0
313.3087536999956	0.7984109004028141	2	49	3440802.593	100	0.7468605004251003	1	0
314.1071646003984	0.7978260000236332	2	49	3440803.379	100	0.7346335998736322	1	0
314.9049906	0.7986736996099353	2	49	3440804.264	87.5	0.8217501998879015	2	0
315.70366430003196	0.7980959000997245	2	0	0	0	0	0	0
316.5017602001317	0.7982477000914514	2	49	3440805.705	87.5	0.6652873000130057	1	0
317.30000790022314	0.7966852001845837	2	49	3440806.563	100	0.7253022999502718	1	0
318.0966931004077	0.7974467999301851	2	49	3440807.358	100	0.7241884996183217	1	0
318.8941399003379	0.8005936997942626	2	49	3440808.19	100	0.7580128000117838	1	0
319.69473360013217	0.7975556002929807	2	49	3440809.204	68.75	0.9713643998838961	2	0
320.49228920042515	0.7973873	2	49	3440809.872	87.5	0.8425349998287857	2	0
321.2896765000187	0.7985130003653467	1	0	0	0	0	0	0
322.08818950038403	0.8000758998095989	2	49	3440811.247	87.5	0.6211156	1	0
322.88826540019363	0.7985180001705885	2	49	3440812.167	100	0.7409374001435935	1	0
323.6867834003642	0.7991601997055113	2	49	3440813.032	93.75	0.8073428999632597	2	0
324.48594360006973	0.7982415999285877	1	49	3440813.926	81.25	0.9024630999192595	2	0
325.2841851999983	0.7963802004233003	2	0	0	0	0	0	0
326.0805654004216	0.8000524998642504	2	49	3440815.323	93.75	0.7047912999987602	1	0
326.88061790028587	0.7974350000731647	2	49	3440816.115	93.75	0.6966184000484645	1	0
327.67805290035903	0.8005328	1	0	0	0	0	0	0
328.4785857000388	0.8007976	2	49	3440817.597	81.25	0.5809182999655604	1	0
329.27938330033794	0.7985410997644067	2	49	3440818.581	100	0.7638405999168754	1	0
330.07792440010235	0.7989191003143787	1	49	3440819.301	93.75	0.6857004002667964	1	0
330.8768435004167	0.7993818996474147	2	0	0	0	0	0	0
331.67622540006414	0.7982348003424704	2	49	3440821.333	50	1.1194222001358867	2	0
332.4744602004066	0.7998860999941826	2	0	0	0	0	0	0
333.2743463004008	0.7986908997409046	2	49	3440822.368	75	0.5560854999348521	1	0
334.0730372001417	0.7964282999746501	2	49	3440823.283	93.75	0.6722373999655247	1	0
334.86946550011635	0.7988467998802662	1	49	3440824.091	93.75	0.6839610999450088	1	0
335.6683122999966	0.7994269002228975	2	49	3440824.889	93.75	0.6837050002068281	1	0
336.4677392002195	0.7980165001936257	2	49	3440825.925	75	0.9198630000464618	2	0
337.26575570041314	0.7982159997336566	2	49	3440826.692	81.25	0.8891868996433914	2	0
338.0639717001468	0.8007749002426863	1	0	0	0	0	0	0
338.8647466003895	0.7993168998509645	2	49	3440828.17	100	0.7678886000066996	1	0
339.66406350024045	0.7990326997824013	2	49	3440829.087	81.25	0.8856063997372985	2	0
340.46309620002285	0.7986968	2	49	3440829.773	93.75	0.7724781003780663	2	0
341.2617930001579	0.7992040999233723	2	49	3440830.608	93.75	0.8091343999840319	2	0
342.0609971000813	0.7992867003194988	1	0	0	0	0	0	0
342.8602838004008	0.7977044000290334	2	49	3440832.014	81.25	0.6165771996602416	1	0
343.6579882004298	0.7974614	2	49	3440832.902	93.75	0.7067812997847795	1	0
344.45544960023835	0.7986455000936985	2	49	3440833.826	87.5	0.8333143000490963	2	0
345.25409510033205	0.7991657997481525	2	49	3440834.741	75	0.9490382997319102	2	0
346.0532609000802	0.7997377002611756	2	49	3440835.572	68.75	0.9815124003216624	2	0
346.8529986003414	0.8004425000399351	2	49	3440836.367	68.75	0.97687	2	0
347.6534411003813	0.7986421999521554	2	49	3440837.094	81.25	0.9033724996261299	2	0
348.45208330033347	0.7987822000868618	2	0	0	0	0	0	0
349.25086550042033	0.7992912996560335	2	49	3440838.545	100	0.7569595999084413	1	0
350.05015680007637	0.7993983002379537	2	49	3440839.4	93.75	0.8119514998979867	2	0
350.8495551003143	0.7993557997979224	2	49	3440840.137	100	0.7495486000552773	1	0
351.64891090011224	0.7990133999846876	2	49	3440840.988	93.75	0.8012669002637267	2	0
352.44792430009693	0.8011672999709845	2	49	3440842.159	43.75	1.1734293000772595	2	0
353.2490916000679	0.7998099001124501	2	0	0	0	0	0	0
354.04890150018036	0.8006899	2	49	3440843.034	62.5	0.44758829986676574	1	0
354.84959140000865	0.7968974001705647	2	49	3440844.04	87.5	0.6526867002248764	1	0
355.6464888001792	0.7982569998130202	1	0	0	0	0	0	0
356.44474579999223	0.8002147004008293	1	49	3440845.719	100	0.7363936002366245	1	0
357.24496050039306	0.7982542999088764	2	0	0	0	0	0	0
358.04321480030194	0.7999338	2	49	3440847.207	87.5	0.6259341	1	0
358.8431486003101	0.7987001999281347	2	49	3440848.246	87.5	0.8653440997004509	2	0
359.6418488002382	0.7985302000306547	2	49	3440849.121	75	0.9414455997757614	2	0
360.4403790002689	0.7987085999920964	2	49	3440849.885	81.25	0.9070207998156548	2	0
361.2390876	0.7999395998194814	2	49	3440850.637	87.5	0.8606440001167357	2	0
362.03902720008045	0.8007244002074003	2	49	3440851.568	68.75	0.9919797000475228	2	0
362.83975160028785	0.7994881998747587	2	49	3440852.214	87.5	0.8365591000765562	2	0
363.6392398001626	0.7992714000865817	1	0	0	0	0	0	0
364.4385112002492	0.8004620997235179	2	49	3440853.761	93.75	0.7853705999441445	2	0
365.2389732999727	0.7976485001854599	2	49	3440854.83	62.5	1.0534517001360655	2	0
366.0366218001582	0.7993443999439478	2	49	3440855.432	87.5	0.8579012001864612	2	0
366.8359662001021	0.7974511003121734	2	49	3440856.423	62.5	1.0496706003323197	2	0
367.6334173004143	0.7989883995614946	2	49	3440857.043	81.25	0.8722551995888352	2	0
368.4324056999758	0.8008519001305103	2	49	3440858.104	50	1.1341069000773132	2	0
369.2332576001063	0.7996264998801053	2	49	3440858.801	62.5	1.0303136999718845	2	0
370.0328840999864	0.7979850000701845	2	49	3440859.458	81.25	0.8881376003846526	2	0
370.8308691000566	0.7989994999952614	2	49	3440860.272	81.25	0.9037429001182318	2	0
371.62986860005185	0.8016085000708699	2	49	3440860.989	93.75	0.8217174001038074	2	0
372.4314771001227	0.7993139000609517	2	49	3440861.988	62.5	1.0192559002898633	2	0
373.2307910001837	0.7983968001790345	2	49	3440862.718	75	0.9492872999981046	2	0
374.0291878003627	0.8013096	2	49	3440863.498	75	0.9314528000541031	2	0
374.8304974003695	0.8003887	2	49	3440864.459	56.25	1.090594599954784	2	0
375.6308861002326	0.8000499000772834	2	49	3440865.321	50	1.152868699748069	2	0
376.4309360003099	0.7983963000588119	2	49	3440866.072	56.25	1.103995599783957	2	0
377.2293323003687	0.7994630998000503	2	49	3440866.863	56.25	1.0966284996829927	2	0
378.02879540016875	0.8029538998380303	2	49	3440867.519	75	0.9529562001116574	2	0
378.8317493000068	0.7947756	2	49	3440868.337	68.75	0.9679873	2	0
379.6265249000862	0.7976736002601683	2	49	3440869.374	43.75	1.2101476001553237	2	0
380.4241985003464	0.7991554997861385	2	0	0	0	0	0	0
381.22335400013253	0.7982796998694539	1	49	3440870.384	87.5	0.6234404998831451	1	0
382.0216337	0.7987096002325416	2	49	3440871.312	100	0.7533546001650393	1	0
382.8203433002345	0.7986567998304963	2	49	3440872.083	100	0.7254973999224603	1	0
383.6190001	0.7978753000497818	2	49	3440872.926	93.75	0.7699298	2	0
384.4168754001148	0.8003720999695361	2	49	3440873.941	68.75	0.9864602000452578	2	0
385.21724750008434	0.7977002002298832	2	49	3440874.767	68.75	1.0126861999742687	2	0
386.0149477003142	0.7989441999234259	2	49	3440875.308	100	0.7554520997218788	1	0
386.81389190023765	0.7982660001143813	2	49	3440876.044	93.75	0.6926660998724401	1	0
387.61215790035203	0.7996640000492334	2	49	3440877.026	81.25	0.8767889998853207	2	0
388.41182190040126	0.8002247	2	49	3440877.753	93.75	0.8042142000049353	2	0
389.2120466004126	0.7989681	2	49	3440878.781	62.5	1.031923099886626	2	0
390.0110147004016	0.7994046998210251	2	49	3440879.67	50	1.1212546997703612	2	0
390.8104194002226	0.7983475001528859	2	49	3440880.244	81.25	0.8963792999275029	2	0
391.6087669003755	0.7981393998488784	2	0	0	0	0	0	0
392.40690630022436	0.7994526	2	49	3440881.614	93.75	0.670119	1	0
393.2063589002937	0.7978857001289725	2	49	3440882.548	93.75	0.8038503001444042	2	0
394.0042446004227	0.7976170997135341	2	49	3440883.303	100	0.7610884997993708	1	0
394.8018617001362	0.7990852002985775	2	49	3440884.217	81.25	0.8772956999018788	2	0
395.6009469004348	0.8007572996430099	2	49	3440885.121	68.75	0.9823739998973906	2	0
396.4017042000778	0.7966523999348283	2	49	3440885.989	62.5	1.0495138000696898	2	0
397.19835660001263	0.8006005003117025	2	49	3440886.631	81.25	0.8948274999856949	2	0
397.99895710032433	0.8012500996701419	2	49	3440887.375	87.5	0.8383832001127303	2	0
398.8002071999945	0.7987316004000604	2	49	3440888.242	81.25	0.9042319003492594	2	0
399.59893880039454	0.7980944998562336	2	49	3440888.917	93.75	0.7804153999313712	2	0
400.39703330025077	0.8002377999946475	2	49	3440889.662	100	0.7274266998283565	1	0
401.1972711002454	0.7982103	2	49	3440890.606	81.25	0.8711962997913361	2	0
401.9954814002849	0.8016633000224829	1	0	0	0	0	0	0
402.7971447003074	0.7992259999737144	2	49	3440891.962	87.5	0.6273662997409701	1	0
403.5963707002811	0.7995110996998847	2	49	3440892.922	93.75	0.7883938997983932	2	0
404.3958818	0.7975110001862049	2	49	3440894.091	50	1.1577382003888488	2	0
405.1933928001672	0.8002265002578497	2	0	0	0	0	0	0
405.99361930042505	0.7997168996371329	2	49	3440895.129	81.25	0.5977399996481836	1	0
406.7933362000622	0.8004834000021219	2	49	3440895.957	87.5	0.6261904002167284	1	0
407.5938196000643	0.7974530002102256	2	49	3440896.852	100	0.7208326002582908	1	0
408.39127260027453	0.8004767997190356	2	49	3440897.682	100	0.7532588001340628	1	0
409.19174939999357	0.798308	2	49	3440898.626	81.25	0.8969299	2	0
409.99005740042776	0.7985253999941051	2	49	3440899.509	68.75	0.9816989996470511	2	0
410.78858280042186	0.7970455996692181	2	49	3440900.087	100	0.7612589998170733	1	0
411.5856284000911	0.7988824001513422	2	49	3440900.871	100	0.7483955998905003	1	0
412.3845108002424	0.7989420001395047	2	49	3440901.654	100	0.7323173000477254	1	0
413.18345280038193	0.7986901	2	49	3440902.878	50	1.1566087999381125	2	0
413.98214290011674	0.7979230000637472	2	49	3440903.407	81.25	0.8871935000643134	2	0
414.7800659001805	0.7979255001991987	2	49	3440904.461	50	1.1436251997947693	2	0
415.5779914003797	0.7965265000239015	2	49	3440904.931	93.75	0.8158044996671379	2	0
416.3745179004036	0.7996529997326434	2	49	3440905.693	93.75	0.7812739997170866	2	0
417.17417090013623	0.7985670999623835	2	49	3440906.475	100	0.7637156001292169	1	0
417.9727380000986	0.7990895002149045	2	49	3440907.222	93.75	0.7114281998947263	1	0
418.7718275003135	0.7970068	1	0	0	0	0	0	0
419.56883430015296	0.7998101999983191	2	49	3440908.609	68.75	0.5030554002150893	1	0
420.3686445001513	0.7979683000594378	2	49	3440909.624	93.75	0.7183679002337158	1	0
421.1666128002107	0.7997308000922203	2	49	3440910.533	87.5	0.8285381998866796	2	0
421.96634360030293	0.7979645	2	49	3440911.271	100	0.7667771000415087	1	0
422.7643081001006	0.7977646002545953	1	0	0	0	0	0	0
423.5620727003552	0.7981191999278963	2	49	3440912.747	87.5	0.6477711996994913	1	0
424.3601919002831	0.7992746001109481	2	49	3440913.674	93.75	0.7759397998452187	2	0
425.15946650039405	0.7994154999032617	2	49	3440914.438	100	0.7410736996680498	1	0
425.9588820002973	0.8013484	2	49	3440915.396	81.25	0.9000086998566985	2	0
426.7602304001339	0.7991392998956144	2	49	3440916.006	93.75	0.7081305999308825	1	0
427.5593697000295	0.8016293002292514	2	49	3440917.075	68.75	0.9778098999522626	2	0
428.36099900025874	0.7985330000519753	2	49	3440917.968	56.25	1.0692194998264313	2	0
429.1595320003107	0.7981067998334765	2	49	3440918.845	50	1.1477707	2	0
429.9576388001442	0.7976342001929879	2	49	3440919.617	56.25	1.121470000129193	2	0
430.7552730003372	0.8027070998214185	2	49	3440920.45	50	1.157205999828875	2	0
431.5579801001586	0.7988497000187635	2	0	0	0	0	0	0
432.35682980017737	0.7974962000735104	2	49	3440921.393	68.75	0.4984712000004947	1	0
433.1543260002509	0.7991851000115275	2	49	3440922.515	87.5	0.8230360997840762	2	0
433.9535111002624	0.7998788999393582	2	49	3440923.311	87.5	0.8199042999185622	2	0
434.75339000020176	0.7990947999060154	2	49	3440923.949	87.5	0.6581178000196815	1	0
435.5524848001078	0.8000099998898804	2	49	3440924.721	87.5	0.6309394002892077	1	0
436.35249479999766	0.7978729	2	49	3440925.524	87.5	0.6340111000463367	1	0
437.15036770002916	0.8004513001069427	2	49	3440926.401	93.75	0.7132558	1	0
437.9508190001361	0.7996332999318838	2	49	3440927.154	87.5	0.6658582002855837	1	0
438.7504523	0.8020632001571357	2	49	3440928.182	81.25	0.8941866001114249	2	0
439.5525155002251	0.7979741999879479	2	49	3440928.869	93.75	0.7789813000708818	2	0
440.3504897002131	0.7993700001388788	2	49	3440929.842	75	0.9542995002120733	2	0
441.14985970035195	0.7993190996348858	2	49	3440930.646	75	0.9588456996716559	2	0
441.94917879998684	0.7999428	2	49	3440931.251	100	0.7643354004248977	1	0
442.74912160029635	0.7984822997823358	2	49	3440932.07	93.75	0.7835435997694731	2	0
443.5476039000787	0.7997787003405392	2	49	3440932.845	100	0.7603810001164675	1	0
444.3473826004192	0.7992188	2	49	3440933.601	93.75	0.7164915995672345	1	0
445.1466014003381	0.8002184997312725	2	49	3440934.455	93.75	0.7712900997139513	2	0
445.9468199000694	0.7986151003278792	2	49	3440935.174	93.75	0.6900623003020883	1	0
446.74543500039726	0.7984211998991668	2	49	3440935.983	93.75	0.7003247998654842	1	0
447.54385620029643	0.7967686001211405	1	0	0	0	0	0	0
448.3406248004176	0.7995463996194303	2	49	3440937.415	75	0.5370972	1	0
449.1401712	0.7977444003336132	2	49	3440938.291	81.25	0.6137156002223492	1	0
449.9379156003706	0.7990743997506797	2	49	3440939.073	81.25	0.5972381997853518	1	0
450.7369900001213	0.7981539000757039	1	49	3440939.786	68.75	0.5114783998578787	1	0
451.5351439	0.7981854001991451	2	49	3440940.92	87.5	0.8471316	2	0
452.33332930039614	0.7997097996994853	2	49	3440941.603	100	0.7325314995832741	1	0
453.13303910009563	0.7993251	2	49	3440942.224	75	0.5538989999331534	1	0
453.93236420024186	0.8010518997907639	1	49	3440943.106	87.5	0.6359002999961376	1	0
454.7334161000326	0.7990680001676083	2	49	3440943.842	81.25	0.5715359002351761	1	0
455.53248410020024	0.8024795	2	49	3440944.74	87.5	0.6695730001665652	1	0
456.33496360015124	0.7969674002379179	2	49	3440945.582	93.75	0.709127	1	0
457.13193100038916	0.8007658999413252	2	49	3440946.393	100	0.7241014000028372	1	0
457.9326969003305	0.7991245999000967	2	49	3440947.209	100	0.7383991996757686	1	0
458.7318215002306	0.7980908998288214	2	49	3440948.154	81.25	0.8843076000921428	2	0
459.5299124000594	0.7975616999901831	2	49	3440948.791	100	0.7232709000818431	1	0
460.3274741000496	0.7997548999264836	1	0	0	0	0	0	0
461.12722899997607	0.7992483000271022	2	49	3440950.269	81.25	0.6043236004188657	1	0
461.92647730000317	0.8007468	2	49	3440951.305	87.5	0.8410610002465546	2	0
462.72722410038114	0.7983629000373185	1	0	0	0	0	0	0
463.52558700041845	0.7999505000188947	2	49	3440952.913	87.5	0.8498312998563051	2	0
464.32553750043735	0.7983582997694612	2	49	3440953.812	75	0.9487403999082744	2	0
465.1238958002068	0.7974392999894917	2	49	3440954.601	75	0.9397761	2	0
465.9213351001963	0.7964627998881042	2	49	3440955.214	100	0.7549899998120964	1	0
466.7177979000844	0.8002729001455009	2	49	3440956.139	81.25	0.8842147001996636	2	0
467.5180708002299	0.7967360997572541	1	0	0	0	0	0	0
468.31480689998716	0.7974431002512574	2	49	3440957.405	75	0.5530275	1	0
469.1122500002384	0.8000237997621298	2	49	3440958.367	93.75	0.7175694997422397	1	0
469.91227380000055	0.7971531003713608	2	49	3440959.114	87.5	0.6642640000209212	1	0
470.7094269003719	0.8002427997998893	2	49	3440960.054	93.75	0.8072353997267783	2	0
471.5096697001718	0.7982414001598954	2	49	3440960.743	93.75	0.6963053001090884	1	0
472.3079111003317	0.7972697000950575	2	49	3440961.671	87.5	0.8256161999888718	2	0
473.10518080042675	0.7979967999272048	1	0	0	0	0	0	0
473.90317760035396	0.7981824	2	49	3440963.238	93.75	0.7969464999623597	2	0
474.7013600002974	0.7988269999623299	2	49	3440964.195	75	0.9560707998462021	2	0
475.50018700025976	0.7979939999058843	2	49	3440964.721	93.75	0.6834177998825908	1	0
476.29818100016564	0.7959998999722302	2	0	0	0	0	0	0
477.09418090013787	0.7984186001121998	1	49	3440966.387	100	0.7555277002975345	1	0
477.89259950025007	0.7997496998868883	2	49	3440967.089	87.5	0.6593633997254074	1	0
478.69234920013696	n/a	0	0	0	0	0	0	0