onset	duration	cue	constant1	timestamp	stimulus_coherence	response_time	response	constant2
20.427083873189986	0.7956207999959588	2	49	3461842.713	100	0.7374452003277838	1	0
21.222704673185945	0.7953608999960124	2	49	3461843.363	81.25	0.5917847002856433	1	0
22.018065573181957	0.8567833001725376	2	49	3461844.168	81.25	0.6014554002322257	1	0
22.874848873354495	0.7954932	2	49	3461844.93	68.75	0.5067622000351548	1	0
23.670342073310167	0.7956846999004483	2	49	3461845.808	81.25	0.5890858001075685	1	0
24.466026773210615	0.7962872	2	49	3461846.827	93.75	0.8126369002275169	2	0
25.262313973158598	0.7953301002271473	2	49	3461847.463	87.5	0.6521792002022266	1	0
26.057644073385745	0.7951405998319387	2	49	3461848.339	100	0.7329053999856114	1	0
26.852784673217684	0.7961691003292799	2	49	3461849.305	81.25	0.9039763999171555	2	0
27.648953773546964	0.7961402996443212	2	49	3461849.982	93.75	0.7846569996327162	2	0
28.445094073191285	0.7955833002924919	2	49	3461850.553	75	0.5595044000074267	1	0
29.240677373483777	0.7951336996629834	2	49	3461851.462	93.75	0.6731400000862777	1	0
30.03581107314676	0.7955517000518739	2	49	3461852.258	93.75	0.6738842003978789	1	0
30.831362773198634	0.7956652003340423	2	49	3461853.026	87.5	0.6465112003497779	1	0
31.627027973532677	0.7951675998046994	2	49	3461853.891	93.75	0.7156982999294996	1	0
32.422195573337376	0.7961824000813067	1	0	0	0	0	0	0
33.21837797341868	0.7966617997735739	2	49	3461855.489	100	0.7223550998605788	1	0
34.01503977319226	0.7956952000968158	1	0	0	0	0	0	0
34.81073497328907	0.7950181001797318	2	49	3461857.085	100	0.7254434	1	0
35.605753073468804	0.7961156996898353	2	49	3461857.874	100	0.7200957997702062	1	0
36.40186877315864	0.7956235003657639	2	49	3461858.909	75	0.9590013003908098	2	0
37.197492273524404	0.7951058996841311	2	49	3461859.423	93.75	0.6765437	1	0
37.992598173208535	0.7949332003481686	2	49	3461860.092	75	0.5503724003210664	1	0
38.78753137	0.7956376997753978	2	49	3461860.755	62.5	0.4193257996812463	1	0
39.58316907	0.7983277002349496	2	49	3461862.035	81.25	0.9033547001890838	2	0
40.38149677356705	0.8016347996890545	2	49	3461862.727	93.75	0.7966218995861709	2	0
41.183131573256105	0.7964935000054538	2	49	3461863.565	87.5	0.8328674002550542	2	0
41.97962507326156	0.7965660002082586	2	49	3461864.283	100	0.7545884000137448	1	0
42.77619107346982	0.7997126998379827	2	49	3461865.044	93.75	0.7191063999198377	1	0
43.57590377	0.7982903001829982	2	49	3461865.543	56.25	0.4183453000150621	1	0
44.37419407	0.8008787999860942	2	49	3461866.589	87.5	0.6660507000051439	1	0
45.17507287347689	0.8011985998600721	2	49	3461867.223	68.75	0.4992066998966038	1	0
45.976271473336965	0.8015824002213776	2	49	3461868.1	81.25	0.5749380998313427	1	0
46.77785387355834	0.8004451999440789	2	49	3461868.923	81.25	0.5967304	1	0
47.57829907350242	0.7996524996124208	2	49	3461869.762	87.5	0.6350078997202218	1	0
48.37795157311484	0.8002838003449142	2	49	3461870.67	100	0.7432290003634989	1	0
49.178235373459756	0.8003360000438988	2	49	3461871.471	100	0.7442608997225761	1	0
49.978571373503655	0.7994017000310123	1	0	0	0	0	0	0
50.77797307353467	0.7996322000399232	2	49	3461873.396	62.5	1.0697562997229397	2	0
51.57760527357459	0.8010072996839881	2	49	3461873.89	100	0.7634136998094618	1	0
52.37861257325858	0.8028608001768589	2	49	3461874.606	93.75	0.6786775998771191	1	0
53.18147337343544	0.7983160996809602	2	49	3461875.337	81.25	0.6068895999342203	1	0
53.97978947	0.7981536001898348	2	49	3461876.085	75	0.5567386001348495	1	0
54.77794307330623	0.7993299001827836	2	49	3461876.843	68.75	0.5166341001167893	1	0
55.577272973489016	0.8012863998301327	2	49	3461877.688	75	0.5623034997843206	1	0
56.37855937331915	0.7989054000936449	2	49	3461878.443	68.75	0.5153896999545395	1	0
57.177464773412794	0.8003317001275718	2	49	3461879.305	81.25	0.5791189	1	0
57.977796473540366	0.8020341997034848	2	49	3461880.575	62.5	1.0488402	2	0
58.77983067324385	0.8070625001564622	1	49	3461881.157	87.5	0.828654	2	0
59.58689317340031	0.8023314	1	0	0	0	0	0	0
60.38922457350418	0.7996155000291765	2	49	3461882.649	93.75	0.7116016000509262	1	0
61.188840073533356	0.7997322	2	49	3461883.7	75	0.9621504000388086	2	0
61.988572273403406	0.7990409997291863	2	49	3461884.441	81.25	0.9035994997248054	2	0
62.78761327313259	0.8011366003192961	1	0	0	0	0	0	0
63.58874987345189	0.7984354	2	49	3461885.75	81.25	0.6130651999264956	1	0
64.38718527322635	0.8029171000234783	2	49	3461886.719	93.75	0.7835502000525594	2	0
65.19010237324983	0.8011278999038041	2	49	3461887.781	62.5	1.0422574002295732	2	0
65.99123027315363	0.7978758001700044	2	49	3461888.475	75	0.9356359001249075	2	0
66.78910607332364	0.7996948999352753	2	49	3461889.156	93.75	0.8182206000201404	2	0
67.58880097325891	0.7999933999963105	2	49	3461889.941	93.75	0.8040857999585569	2	0
68.38879437325522	0.7994039002805948	2	49	3461890.711	93.75	0.7740270001813769	2	0
69.18819827353582	0.7998505998402834	2	49	3461891.535	93.75	0.7980555	2	0
69.98804887	0.7990146	2	49	3461892.337	93.75	0.7999904998578131	2	0
70.78706347336993	0.8005766998976469	2	49	3461893.115	93.75	0.7788811000064015	2	0
71.58764017326757	0.7989872000180185	2	49	3461894.035	81.25	0.8990174001082778	2	0
72.38662737328559	0.7993729999288917	2	49	3461894.579	87.5	0.6434636	1	0
73.18600037321448	0.7978702001273632	1	49	3461895.203	62.5	0.46801620023325086	1	0
73.98387057334185	0.8006198001094162	2	49	3461896.372	87.5	0.8394737001508474	2	0
74.78449037345126	0.7989479000680149	2	49	3461897.077	100	0.7435614997521043	1	0
75.58343827351928	0.7991826	2	49	3461897.715	81.25	0.5827631996944547	1	0
76.38262087339535	0.8005877998657525	2	49	3461898.348	56.25	0.4170560999773443	1	0
77.18320867	0.8012776002287865	2	49	3461899.215	68.75	0.4829846	1	0
77.98448627348989	0.8024252997711301	2	49	3461899.968	62.5	0.4346606000326574	1	0
78.78691157326102	0.7996161999180913	2	49	3461900.997	87.5	0.6611746000126004	1	0
79.58652777317911	0.8007289003580809	2	49	3461901.937	93.75	0.8019362003542483	2	0
80.38725667	0.7999137998558581	2	49	3461902.684	100	0.7485418999567628	1	0
81.18717047339305	0.8003465	2	49	3461903.583	87.5	0.8476646998897195	2	0
81.98751697316766	0.8009139001369476	1	0	0	0	0	0	0
82.78843087	0.7999400999397039	2	49	3461905.38	62.5	1.0429907999932766	2	0
83.58837097324431	0.8017695001326501	2	49	3461905.968	87.5	0.8310344000346959	2	0
84.39014047337696	0.8008743999525905	2	49	3461906.766	87.5	0.8271372001618147	2	0
85.19101487332955	0.7993442001752555	2	49	3461907.557	93.75	0.8176656002178788	2	0
85.99035907	0.8009357000701129	2	49	3461908.361	87.5	0.8220099997706711	2	0
86.79129477357492	0.8003810998052359	2	49	3461908.99	87.5	0.6502315998077393	1	0
87.59167587338015	0.7999607999809086	2	49	3461909.846	93.75	0.7059133998118341	1	0
88.39163667336106	0.7997249001637101	2	49	3461910.555	81.25	0.6149693997576833	1	0
89.19136157352477	0.8001243998296559	2	49	3461911.272	75	0.5321320998482406	1	0
89.99148597335443	0.8033993002027273	2	49	3461912.373	87.5	0.8330822000280023	2	0
90.79488527355716	0.7994423997588456	2	49	3461913.074	100	0.7307650996372104	1	0
91.59432767	0.8001053999178112	1	49	3461913.761	81.25	0.6183497002348304	1	0
92.39443307323381	0.8010363	2	49	3461914.821	81.25	0.8781095002777874	2	0
93.19546937337145	0.8008151	2	49	3461915.623	81.25	0.879144	2	0
93.99628447322175	0.8003871999680996	2	49	3461916.432	81.25	0.8874242999590933	2	0
94.79667167318985	0.7998709999956191	2	49	3461917.19	87.5	0.8447925001382828	2	0
95.59654267318547	0.7996843000873923	2	49	3461918.071	75	0.9261692	2	0
96.39622697327286	0.8000026000663638	1	0	0	0	0	0	0
97.19622957333922	0.7997885001823306	2	49	3461919.486	100	0.7406994001939893	1	0
97.99601807352155	0.8019693996757269	2	49	3461920.389	87.5	0.8443040000274777	2	0
98.79798747319728	0.8026684001088142	2	49	3461921.178	87.5	0.8317294	2	0
99.60065587	0.7994973999448121	2	49	3461921.951	93.75	0.8013007999397814	2	0
100.40015327325091	0.8000280000269413	2	49	3461922.762	93.75	0.8136884002014995	2	0
101.20018127327785	0.8023454998619854	2	49	3461923.613	87.5	0.8638332	2	0
102.00252677313983	0.7998709999956191	2	49	3461924.473	75	0.9214153001084924	2	0
102.80239777313545	0.8017455004155636	2	49	3461925.326	68.75	0.9754920001141727	2	0
103.60414327355102	0.7991116996854544	2	49	3461926.098	75	0.9449007	2	0
104.40325497323647	0.7997955000028014	2	49	3461926.821	87.5	0.8688227999955416	2	0
105.20305047323927	0.7994094002060592	2	49	3461927.622	81.25	0.8699254998937249	2	0
106.00245987344533	0.8002267	2	49	3461928.434	81.25	0.8829346997663379	2	0
106.80268657347187	0.8015228998847306	2	49	3461929.116	100	0.7647901996970177	1	0
107.6042094733566	0.7989082997664809	2	49	3461929.898	100	0.7454828000627458	1	0
108.40311777312309	0.7983719003386796	2	49	3461930.741	93.75	0.7894277004525065	2	0
109.20148967346177	0.8000533999875188	2	49	3461931.452	93.75	0.7016725	1	0
110.00154307344928	0.8017207998782396	2	49	3461932.092	75	0.5419477000832558	1	0
110.80326387332752	0.7996522998437285	2	49	3461933.029	93.75	0.6768495999276638	1	0
111.60291617317125	0.7989986999891698	2	49	3461934.024	81.25	0.8722208002582192	2	0
112.40191487316042	0.8005723999813199	2	49	3461934.902	75	0.9513863	2	0
113.20248727314174	0.8016840000636876	2	49	3461935.681	75	0.9297154	2	0
114.00417127320543	0.8001605002209544	2	49	3461936.38	87.5	0.8271399000659585	2	0
114.80433177342638	0.7986074998043478	2	49	3461937.257	81.25	0.9041011999361217	2	0
115.60293927323073	0.7989901001565158	1	0	0	0	0	0	0
116.40192937338725	0.8017323	2	49	3461938.719	100	0.7685075	1	0
117.20366167323664	0.8012832999229431	2	49	3461939.501	100	0.7491768999025226	1	0
118.00494497315958	0.7992377001792192	2	49	3461940.343	93.75	0.7889982000924647	2	0
118.8041826733388	0.8004403999075294	2	49	3461941.125	93.75	0.7725208001211286	2	0
119.60462307324633	0.8006394002586603	2	49	3461941.961	93.75	0.8079299000091851	2	0
120.40526247350499	0.8002147	2	49	3461942.83	81.25	0.8761371998116374	2	0
121.20547717344016	0.8029204998165369	2	49	3461943.658	81.25	0.9039596999064088	2	0
122.0083976732567	0.7991053001023829	2	49	3461944.392	87.5	0.8350153001956642	2	0
122.80750297335908	0.7999645001254976	2	49	3461945.04	93.75	0.6839430001564324	1	0
123.60746747348458	0.8015327	2	49	3461945.79	87.5	0.6337275998666883	1	0
124.4090001732111	0.8023878000676632	2	49	3461946.593	87.5	0.6356023	1	0
125.21138797327876	0.8017119001597166	2	49	3461947.498	100	0.7382920999079943	1	0
126.01309987343848	0.8026794	2	49	3461948.289	100	0.7274972000159323	1	0
126.81577927339822	0.7999617997556925	2	49	3461949.064	93.75	0.7000024	1	0
127.61574107315391	0.8008750001899898	2	49	3461949.827	87.5	0.6631738003343344	1	0
128.4166160733439	0.8008500002324581	2	49	3461950.78	93.75	0.8152235997840762	2	0
129.21746607357636	0.7996960999444127	2	49	3461951.485	93.75	0.7192409997805953	1	0
130.01716217352077	0.8011956	2	49	3461952.39	87.5	0.8245775997638702	2	0
130.81835777312517	0.8013148000463843	1	0	0	0	0	0	0
131.61967257317156	0.802269	2	49	3461953.83	87.5	0.6613612002693117	1	0
132.42194157326594	0.7998097999952734	2	49	3461954.723	100	0.7521955999545753	1	0
133.2217513732612	0.7972891	2	49	3461955.541	93.75	0.7710256	2	0
134.01904047327116	0.7983357002958655	2	49	3461956.283	93.75	0.7150628999806941	1	0
134.81737617356703	0.7955378997139633	2	49	3461957.033	87.5	0.6674770996905863	1	0
135.6129141	0.7969728000462055	2	49	3461958	87.5	0.8382526999339461	2	0
136.4098868733272	0.8023755000904202	2	49	3461958.848	81.25	0.8890613000839949	2	0
137.21226237341762	0.7982554999180138	2	49	3461959.563	93.75	0.8017938998527825	2	0
138.01051787333563	0.7976541998796165	2	49	3461960.14	81.25	0.5812154999002814	1	0
138.80817207321525	0.7957685003057122	2	49	3461960.934	81.25	0.5769299999810755	1	0
139.60394057352096	0.7950404998846352	2	49	3461961.791	87.5	0.6380216996185482	1	0
140.3989810734056	0.8021847000345588	2	49	3461962.729	93.75	0.7809971999377012	2	0
141.20116577344015	0.8023903998546302	2	49	3461963.549	93.75	0.7993759997189045	2	0
142.00355617329478	0.8013841002248228	1	49	3461964.332	93.75	0.7797735999338329	2	0
142.8049402735196	0.7997180996462703	2	49	3461965.634	31.25	1.2801707996986806	2	0
143.60465837316588	0.7992821000516415	1	0	0	0	0	0	0
144.40394047321752	0.8019807003438473	2	49	3461966.479	75	0.5261212000623345	1	0
145.20592117356136	0.8003936996683478	2	49	3461967.36	81.25	0.6054213996976614	1	0
146.0063148732297	0.8010893003083766	2	49	3461968.2	87.5	0.6449068002402782	1	0
146.8074041735381	0.8018665998242795	1	0	0	0	0	0	0
147.60927077336237	0.8009250997565687	2	49	3461969.925	100	0.7671893001534045	1	0
148.41019587311894	0.8001778000034392	2	49	3461970.88	81.25	0.9215747001580894	2	0
149.21037367312238	0.7994449003599584	2	49	3461971.569	93.75	0.8097149	2	0
150.00981857348233	0.7993033998645842	2	49	3461972.414	87.5	0.8558217999525368	2	0
150.80912197334692	0.8018609997816384	2	49	3461973.161	93.75	0.8028882001526654	2	0
151.61098297312856	0.7996610002592206	2	49	3461974.095	75	0.9353859000839293	2	0
152.41064397338778	0.8021056	2	49	3461974.745	93.75	0.7856374001130462	2	0
153.2127495734021	0.7999082999303937	2	49	3461975.625	87.5	0.8637310001067817	2	0
154.0126578733325	0.8002632	1	0	0	0	0	0	0
154.81292107328773	0.800331	2	49	3461977.112	100	0.7502093999646604	1	0
155.61325207352638	0.7986989999189973	2	49	3461977.897	100	0.7356218998320401	1	0
156.41195107344538	0.8013019	2	49	3461978.726	100	0.7657623998820782	1	0
157.21325297327712	0.7996538998559117	2	49	3461979.578	93.75	0.8164051999337971	2	0
158.01290687313303	0.7991967000998557	1	0	0	0	0	0	0
158.8121035732329	0.8005715999752283	2	49	3461981.024	87.5	0.6636728001758456	1	0
159.61267517320812	0.8004618003033102	1	0	0	0	0	0	0
160.41313697351143	0.8011294999159873	2	49	3461982.963	68.75	1.001594000030309	2	0
161.21426647342741	0.8001742	2	49	3461983.498	100	0.7353651998564601	1	0
162.01444067340344	0.8011869001202285	2	49	3461984.447	81.25	0.8843068000860512	2	0
162.81562757352367	0.7985845999792218	2	49	3461985.193	87.5	0.8291014996357262	2	0
163.6142121735029	0.8000292000360787	2	49	3461985.834	93.75	0.6716257999651134	1	0
164.41424137353897	0.7993309996090829	1	49	3461986.565	81.25	0.6026359996758401	1	0
165.21357237314805	0.8000157000496984	2	49	3461987.427	87.5	0.6650731000117958	1	0
166.01358807319775	0.7999341003596783	2	49	3461988.577	68.75	1.015293600037694	2	0
166.81352217355743	0.7991350996308029	2	49	3461989.359	68.75	0.9971784995868802	2	0
167.61265727318823	0.7980134002864361	1	0	0	0	0	0	0
168.41067067347467	0.8004095000214875	2	49	3461990.772	93.75	0.8124229996465147	2	0
169.21108017349616	0.798374	2	49	3461991.614	87.5	0.8540965998545289	2	0
170.00945417350158	0.7992876996286213	2	49	3461992.46	81.25	0.9024686999619007	2	0
170.8087418731302	0.7991458000615239	2	49	3461993.267	81.25	0.9095955002121627	2	0
171.60788767319173	0.8020478999242187	1	0	0	0	0	0	0
172.40993557311594	0.7980572003871202	2	49	3461994.617	87.5	0.6581138004548848	1	0
173.20799277350307	0.7995985997840762	2	49	3461995.602	87.5	0.844969	2	0
174.00759137328714	0.8012490998953581	2	49	3461996.471	81.25	0.9144490002654493	2	0
174.8088404731825	0.8020683000795543	2	49	3461997.55	43.75	1.1923953001387417	2	0
175.61090877326205	0.8005122998729348	2	0	0	0	0	0	0
176.4114211	0.7997762002050877	2	49	3461998.49	75	0.5297101000323892	1	0
177.21119727334008	0.8006664	1	49	3461999.234	68.75	0.4744990998879075	1	0
178.0118636735715	0.8010418997146189	2	49	3462000.62	62.5	1.0594526999630034	2	0
178.81290557328612	0.7984143998473883	2	49	3462001.449	56.25	1.0877812998369336	2	0
179.6113199731335	0.8011271003633738	1	0	0	0	0	0	0
180.41244707349688	0.8018229999579489	2	49	3462002.797	87.5	0.8357342998497188	2	0
181.21427007345483	0.8033548998646438	2	49	3462003.861	56.25	1.0982297998853028	2	0
182.01762497331947	0.8003793000243604	2	49	3462004.636	62.5	1.0700571001507342	2	0
182.81800427334383	0.7980965999886394	2	49	3462005.362	68.75	0.9953848998993635	2	0
183.61610087333247	0.8006103998050094	2	49	3462005.984	93.75	0.8194703999906778	2	0
184.41671127313748	0.8008082001470029	2	0	0	0	0	0	0
185.21751947328448	0.7994678001850843	2	49	3462007.371	81.25	0.6050578998401761	1	0
186.01698727346957	0.8006617999635637	2	49	3462008.107	75	0.5418516998179257	1	0
186.81764907343313	0.7996944999322295	2	49	3462009.384	68.75	1.017841000109911	2	0
187.61734357336536	0.8010058999061584	2	49	3462010.139	68.75	0.9734729998745024	2	0
188.41834947327152	0.8037354000844061	2	49	3462011.005	62.5	1.0381708000786602	2	0
189.22208487335593	0.8019507001154125	2	49	3462011.662	81.25	0.8914282000623643	2	0
190.02403557347134	0.8011242998763919	2	49	3462012.66	56.25	1.0875046998262405	2	0
190.82515987334773	0.7989093000069261	2	0	0	0	0	0	0
191.62406917335466	0.7994715	2	49	3462013.929	100	0.7563161998987198	1	0
192.42354067321867	0.7997782002203166	2	49	3462015.029	62.5	1.0573448999784887	2	0
193.22331887343898	0.8011293997988105	2	49	3462015.705	75	0.9333295999094844	2	0
194.0244482732378	0.8009925000369549	2	0	0	0	0	0	0
194.82544077327475	0.8006680002436042	2	49	3462017.087	93.75	0.7127367998473346	1	0
195.62610877351835	0.7979686995968223	2	49	3462017.909	100	0.7345045	1	0
196.42407747311518	0.8018645001575351	2	49	3462018.944	75	0.9717918001115322	2	0
197.2259419732727	0.8017720002681017	2	49	3462019.865	56.25	1.0907322000712156	2	0
198.0277139735408	0.8010827996768057	1	0	0	0	0	0	0
198.82879677321762	0.7996948999352753	2	49	3462021.366	68.75	0.9891000003553927	2	0
199.6284916731529	0.7999522001482546	2	49	3462021.902	100	0.7251885002478957	1	0
200.42844387330115	0.8017766000702977	1	49	3462022.595	81.25	0.6184515999630094	1	0
201.23022047337145	0.8004422998055816	2	49	3462023.872	56.25	1.0929025001823902	2	0
202.03066277317703	0.7998864999972284	2	49	3462024.762	43.75	1.1829753001220524	2	0
202.83054927317426	0.8005178002640605	2	0	0	0	0	0	0
203.63106707343832	0.7995011997409165	2	49	3462025.995	93.75	0.8157580997794867	2	0
204.43056827317923	0.7999504003673792	2	0	0	0	0	0	0
205.2305186735466	0.7999032000079751	2	49	3462027.705	75	0.9257356999441981	2	0
206.0304218735546	0.7998751997947693	1	0	0	0	0	0	0
206.83029707334936	0.8026228002272546	2	49	3462029.104	100	0.7246500002220273	1	0
207.6329198735766	0.8010357995517552	2	49	3462030.04	87.5	0.8582482	2	0
208.43395567312837	0.8014835002832115	2	49	3462030.917	75	0.9341340004466474	2	0
209.23543917341158	0.7988756997510791	2	49	3462031.708	75	0.9236237001605332	2	0
210.03431487316266	0.7999574	2	49	3462032.303	93.75	0.7200756999664009	1	0
210.8342722733505	0.7984374999068677	2	49	3462033.404	62.5	1.0208286000415683	2	0
211.63270977325737	0.8012779001146555	2	0	0	0	0	0	0
212.43398767337203	0.7981385001912713	2	49	3462034.547	75	0.5644392999820411	1	0
213.2321261735633	0.7993601998314261	1	0	0	0	0	0	0
214.03148637339473	0.7994254999794066	2	49	3462036.718	50	1.1384042999707162	2	0
214.83091187337413	0.8016225998289883	1	0	0	0	0	0	0
215.63253447320312	0.8017562	2	49	3462037.852	87.5	0.6707688001915812	1	0
216.43429067311808	0.8000428001396358	2	49	3462038.881	81.25	0.8980689002200961	2	0
217.23433347325772	0.7996743000112474	2	49	3462039.606	87.5	0.8231770000420511	2	0
218.03400777326897	0.8001160002313554	2	49	3462040.477	81.25	0.8947538998909295	2	0
218.83412377350032	0.8018424999900162	2	49	3462041.483	56.25	1.1007286999374628	2	0
219.63596627349034	0.7995797996409237	2	49	3462042.416	37.5	1.2317580999806523	2	0
220.43554607313126	0.7999648000113666	2	49	3462043.016	62.5	1.0319018000736833	2	0
221.23551087314263	0.8018458001315594	2	49	3462043.773	68.75	0.9890881003811955	2	0
222.0373566732742	0.7997023002244532	2	49	3462044.662	56.25	1.0761449001729488	2	0
222.83705897349864	0.8026164998300374	2	0	0	0	0	0	0
223.63967547332868	0.7999875000678003	2	49	3462045.746	75	0.5580490999855101	1	0
224.43966297339648	0.8012170000001788	2	49	3462046.64	87.5	0.6520171999000013	1	0
225.24087997339666	0.7995580001734197	2	49	3462047.779	68.75	0.9896248001605272	2	0
226.04043797357008	0.7989342999644578	2	49	3462048.644	62.5	1.0551310000009835	2	0
226.83937227353454	0.8003492997959256	2	0	0	0	0	0	0
227.63972157333046	0.7998997000977397	1	0	0	0	0	0	0
228.4396212734282	0.8006976000033319	1	0	0	0	0	0	0
229.24031887343153	0.7983381999656558	2	49	3462051.733	75	0.9437298998236656	2	0
230.0386570733972	0.8006325997412205	2	49	3462052.357	100	0.7701509	1	0
230.8392896731384	0.8009300003759563	2	49	3462053.189	93.75	0.8008179999887943	2	0
231.64021967351437	0.8002885999158025	2	49	3462054.041	87.5	0.8526778998784721	2	0
232.44050827343017	0.7988313999958336	2	49	3462054.927	75	0.9377830997109413	2	0
233.2393397	0.7993075	1	0	0	0	0	0	0
234.03864717343822	0.7999929999932647	2	49	3462056.411	87.5	0.8242546999827027	2	0
234.8386401734315	0.7992719	2	49	3462057.136	100	0.7486012997105718	1	0
235.63791207317263	0.7992829000577331	1	0	0	0	0	0	0
236.43719497323036	0.7999176001176238	2	49	3462058.686	93.75	0.6997465002350509	1	0
237.23711257334799	0.8018586998805404	2	49	3462059.601	93.75	0.8153578001074493	2	0
238.03897127322853	0.8027329999022186	2	49	3462060.495	81.25	0.9071082002483308	2	0
238.84170427313074	0.8005096004344523	2	49	3462061.147	100	0.7563413004390895	1	0
239.6422138735652	0.7989870999008417	2	49	3462061.896	93.75	0.7049496998079121	1	0
240.44120097346604	0.7995134997181594	2	49	3462062.856	87.5	0.8663987000472844	2	0
241.2407144731842	0.8009125	2	49	3462063.651	87.5	0.8614596002735198	2	0
242.04162697354332	0.8024005996994674	2	49	3462064.358	100	0.7673223000019789	1	0
242.84402757324278	0.7994043999351561	2	49	3462065.05	87.5	0.6571762003004551	1	0
243.64343197317794	0.8019365002401173	2	49	3462065.949	100	0.7569190999493003	1	0
244.44536847341806	0.8017028998583555	2	49	3462066.758	100	0.7641189997084439	1	0
245.2470713732764	0.8015490998513997	1	0	0	0	0	0	0
246.0486204731278	0.7995772	2	49	3462068.172	81.25	0.5745333000086248	1	0
246.84819767344743	0.7999565000645816	2	0	0	0	0	0	0
247.6481542	0.7991510997526348	2	49	3462069.767	75	0.5700550000183284	1	0
248.44730527326465	0.7994043999351561	2	49	3462070.871	81.25	0.8749285000376403	2	0
249.2467096731998	0.8021285999566317	2	49	3462071.533	100	0.7375231999903917	1	0
250.04883827315643	0.8016417999751866	2	49	3462072.432	87.5	0.8346677	2	0
250.85048007313162	0.7991096000187099	2	49	3462073.446	62.5	1.047106500249356	2	0
251.64958967315033	0.7990322	2	49	3462074.189	68.75	0.9907806999981403	2	0
252.44862187327817	0.8016035999171436	2	49	3462074.921	81.25	0.9237559	2	0
253.25022547319531	0.8002293999306858	2	49	3462075.694	81.25	0.8952125003561378	2	0
254.0504549	0.8016131999902427	2	0	0	0	0	0	0
254.85206807311624	0.8006828003562987	2	49	3462076.963	75	0.5627332	1	0
255.65275087347254	0.8014842998236418	2	49	3462077.76	75	0.5588817996904254	1	0
256.4542351732962	0.8006632002070546	2	49	3462078.7	93.75	0.6970726000145078	1	0
257.25489837350324	0.8000690997578204	2	49	3462079.522	93.75	0.7181267999112606	1	0
258.05496747326106	0.7987831998616457	2	49	3462080.464	87.5	0.8602730999700725	2	0
258.8537506731227	0.7993379002436996	2	49	3462081.199	93.75	0.7969814003445208	2	0
259.6530885733664	0.8000399000011384	2	49	3462082.325	50	1.1235902002081275	2	0
260.45312847336754	0.8017597999423742	1	0	0	0	0	0	0
261.2548882733099	0.8012121999636292	2	49	3462083.67	87.5	0.8668694002553821	2	0
262.05610047327355	0.7999188001267612	2	49	3462084.329	100	0.7244608	1	0
262.8560192734003	0.7994113997556269	2	49	3462085.149	100	0.7447148999199271	1	0
263.65543067315593	0.7997473999857903	2	49	3462086.015	93.75	0.8112635002471507	2	0
264.4551780731417	0.8022164003923535	2	49	3462086.849	87.5	0.8456109003163874	2	0
265.2573944735341	0.7999330000020564	2	49	3462087.621	93.75	0.8146242997609079	2	0
266.05732747353613	0.8029721998609602	2	49	3462088.499	87.5	0.8927771998569369	2	0
266.8602996733971	0.8012049999088049	2	49	3462089.499	56.25	1.0905789998359978	2	0
267.6615046733059	0.8008416001684964	1	0	0	0	0	0	0
268.4623462734744	0.8014743998646736	2	49	3462090.866	87.5	0.8555210996419191	2	0
269.26382067333907	0.8017472000792623	2	49	3462091.672	87.5	0.8595402999781072	2	0
270.06556787341833	0.8013820997439325	2	49	3462092.392	93.75	0.7783260997384787	2	0
270.86694997316226	0.798834	2	49	3462093.158	100	0.7425228003412485	1	0
271.6657839734107	0.7999895000830293	2	49	3462094.186	75	0.9721324001438916	2	0
272.46577347349375	0.7992028999142349	2	49	3462094.768	100	0.7535516996867955	1	0
273.2649764	0.8002253999002278	2	49	3462095.781	75	0.9671517	2	0
274.0652017733082	0.8001072001643479	2	49	3462096.492	81.25	0.8778480002656579	2	0
274.86530897347257	0.7985737998969853	2	49	3462097.394	68.75	0.9797112	2	0
275.66388277336955	0.8001191997900605	2	49	3462098.041	87.5	0.8281458001583815	2	0
276.4640019731596	0.8006661999970675	1	0	0	0	0	0	0
277.2646681731567	0.8008148	2	49	3462099.63	93.75	0.8168168002739549	2	0
278.0654829731211	0.8012141003273427	2	49	3462100.494	81.25	0.8798082	2	0
278.86669707344845	0.7990290997549891	2	49	3462101.342	75	0.9265088001266122	2	0
279.66572617320344	0.8013871000148356	2	0	0	0	0	0	0
280.4671132732183	0.7997882999479771	2	49	3462102.633	81.25	0.6172732999548316	1	0
281.26690157316625	0.7979528000578284	2	49	3462103.414	81.25	0.5984654002822936	1	0
282.0648543732241	0.8007310000248253	2	49	3462104.213	81.25	0.5994262001477182	1	0
282.8655853732489	0.7995275002904236	2	49	3462105.136	100	0.7217000001110137	1	0
283.66511287353933	0.8005849998444319	2	49	3462106.011	93.75	0.7974411998875439	2	0
284.46569787338376	0.7996233999729156	2	49	3462106.885	81.25	0.8707388	2	0
285.2653212733567	0.8003604998812079	1	0	0	0	0	0	0
286.0656817732379	0.8014235002920032	2	49	3462108.346	100	0.7318025003187358	1	0
286.8671052735299	0.8003615997731686	2	49	3462109.178	100	0.7626390997320414	1	0
287.66746687330306	0.8011385998688638	2	49	3462110.165	75	0.9487358001060784	2	0
288.4686054731719	0.7998696002177894	2	49	3462111.081	62.5	1.0638747001066804	2	0
289.2684750733897	0.8011626000516117	2	49	3462111.833	68.75	1.016238700132817	2	0
290.0696376734413	0.8011114001274109	2	0	0	0	0	0	0
290.87074907356873	0.8012412996031344	1	49	3462113.136	93.75	0.7168746995739639	1	0
291.67199037317187	0.8014087001793087	2	49	3462114.128	81.25	0.9077151003293693	2	0
292.4733990733512	0.802074	2	0	0	0	0	0	0
293.2754730731249	0.8006746000610292	2	49	3462115.395	81.25	0.5712760002352297	1	0
294.0761476731859	0.7990240002982318	2	49	3462116.191	75	0.5657858001068234	1	0
294.87517167348415	0.8017619997262955	1	0	0	0	0	0	0
295.67693367321044	0.7999729001894593	2	49	3462117.934	93.75	0.7088901000097394	1	0
296.4769065733999	0.8026104997843504	2	49	3462119.118	56.25	1.0921450997702777	2	0
297.27951707318425	0.7997719002887607	1	0	0	0	0	0	0
298.079289	0.8001259998418391	1	49	3462120.065	62.5	0.43711220007389784	1	0
298.87941497331485	0.8052869001403451	1	0	0	0	0	0	0
299.6847018734552	0.8000988997519016	2	49	3462122.282	62.5	1.0482506998814642	2	0
300.4848007732071	0.7993532000109553	2	49	3462122.893	87.5	0.8591518001630902	2	0
301.28415397321805	0.7971503003500402	2	49	3462123.807	68.75	0.9746519001200795	2	0
302.0813042735681	0.7999789	2	49	3462124.532	81.25	0.9017539	2	0
302.8812831733376	0.8007045998238027	2	0	0	0	0	0	0
303.6819877731614	0.7980762999504805	2	49	3462125.661	62.5	0.43054490024223924	1	0
304.48006407311186	0.7990761	2	49	3462126.747	93.75	0.7179847001098096	1	0
305.27914017345756	0.8001728998497128	2	0	0	0	0	0	0
306.0793130733073	0.8022468001581728	2	49	3462128.314	93.75	0.6858048001304269	1	0
306.88155987346545	0.8015548996627331	2	49	3462128.988	75	0.5575838997028768	1	0
307.6831147731282	0.8000575001351535	2	49	3462129.829	81.25	0.5972582004033029	1	0
308.48317227326334	0.8010056000202894	2	49	3462130.741	93.75	0.7089611999690533	1	0
309.2841778732836	0.8005822999402881	2	49	3462131.398	75	0.5651540998369455	1	0
310.0847601732239	0.8013017000630498	2	49	3462132.142	68.75	0.5086175003089011	1	0
310.88606187328696	0.8005808000452816	2	49	3462133.096	87.5	0.6615670998580754	1	0
311.68664267333224	0.7990950997918844	1	0	0	0	0	0	0
312.48573777312413	0.8011571001261473	2	49	3462134.725	93.75	0.6904381001368165	1	0
313.2868948732503	0.7998394002206624	2	49	3462135.726	81.25	0.8906025001779199	2	0
314.08673427347094	0.799949	1	0	0	0	0	0	0
314.88668327312917	0.7992988000623882	2	49	3462137.019	81.25	0.5839270004071295	1	0
315.68598207319155	0.8009455003775656	2	49	3462138.332	56.25	1.0975973000749946	2	0
316.4869275735691	0.800752	2	49	3462138.8	100	0.7647164	1	0
317.2876796	0.8008359996601939	2	49	3462139.802	75	0.9657020997256041	2	0
318.0885155731812	0.8002269002608955	2	49	3462140.802	50	1.1650378	2	0
318.8887424734421	0.8000847999937832	2	49	3462141.534	56.25	1.0969886998645961	2	0
319.6888272734359	0.8025361998006701	1	0	0	0	0	0	0
320.49136347323656	0.7995887002907693	2	49	3462142.68	87.5	0.6395656000822783	1	0
321.29095217352733	0.8009739997796714	2	49	3462143.668	87.5	0.8284632996656001	2	0
322.0919262	0.7997250999324024	2	49	3462144.554	81.25	0.9137531002052128	2	0
322.8916512732394	0.7997059002518654	2	49	3462145.436	68.75	0.9959869002923369	2	0
323.69135717349127	0.8012246997095644	2	49	3462146.011	100	0.7711950996890664	1	0
324.49258187320083	0.7998198000714183	2	49	3462146.922	81.25	0.8809984000399709	2	0
325.29240167327225	0.7993378001265228	2	49	3462147.627	93.75	0.7862614998593926	2	0
326.0917394733988	0.7997897998429835	2	49	3462148.478	87.5	0.8378845	2	0
326.89152927324176	0.8004370001144707	2	49	3462149.241	93.75	0.8012447003275156	2	0
327.69196627335623	0.7995580998249352	2	49	3462149.984	100	0.7436941000632942	1	0
328.49152437318116	0.7997366	2	49	3462150.84	93.75	0.7996594002470374	2	0
329.2912609735504	0.8017722996883094	2	49	3462151.579	100	0.7393073	1	0
330.0930332732387	0.7985505000688136	2	49	3462152.606	75	0.9640553998760879	2	0
330.8915837733075	0.7986122998408973	2	49	3462153.562	50	1.1215137001127005	2	0
331.6901960731484	0.8000046000815928	2	0	0	0	0	0	0
332.4902007	0.8006366998888552	2	49	3462154.665	87.5	0.6265972000546753	1	0
333.29083737311885	0.8011415000073612	2	49	3462155.786	75	0.9469942003488541	2	0
334.0919788731262	0.7992325001396239	2	49	3462156.661	62.5	1.0199804003350437	2	0
334.89121137326583	0.7981822001747787	1	0	0	0	0	0	0
335.6893935734406	0.8015577998012304	2	49	3462157.885	87.5	0.6474486999213696	1	0
336.49095137324184	0.801131	2	49	3462158.801	100	0.7611870002001524	1	0
337.2920823735185	0.7994140000082552	1	0	0	0	0	0	0
338.09149637352675	0.7996452	2	49	3462160.413	100	0.7731854	1	0
338.89114157343283	0.8009803998284042	2	49	3462161.306	87.5	0.8660043999552727	2	0
339.69212197326124	0.8020943999290466	2	49	3462161.895	87.5	0.6541536999866366	1	0
340.4942163731903	0.8000422003678977	1	49	3462162.716	93.75	0.6730293002910912	1	0
341.2942585735582	0.8005545996129513	2	49	3462163.609	100	0.7658230997622013	1	0
342.09481317317113	0.8014785000123084	2	49	3462164.494	87.5	0.8502859999425709	2	0
342.89629167318344	0.8023681002669036	2	49	3462165.16	93.75	0.7149147000163794	1	0
343.69865977345034	0.7998982	2	49	3462166.042	93.75	0.7948234998621047	2	0
344.4985579731874	0.8016006001271307	2	49	3462166.947	81.25	0.8997727003879845	2	0
345.30015857331455	0.7993764998391271	1	0	0	0	0	0	0
346.0995350731537	0.7997881001792848	2	49	3462168.373	100	0.7246679002419114	1	0
346.89932317333296	0.7991027999669313	2	49	3462169.558	56.25	1.110097600147128	2	0
347.6984259732999	0.8016152000054717	2	49	3462170.267	68.75	1.019534199964255	2	0
348.50004117330536	0.7995198001153767	2	49	3462170.857	93.75	0.8082190998829901	2	0
349.29956097342074	0.7989604999311268	2	49	3462171.655	93.75	0.8069357	2	0
350.09852147335187	0.7992500001564622	2	49	3462172.396	100	0.7484422	1	0
350.8977714735083	0.8014090997166932	2	49	3462173.241	93.75	0.7942828	2	0
351.6991806	0.8006187002174556	2	49	3462174.058	93.75	0.8103255000896752	2	0
352.4997992734425	0.7990608997642994	2	49	3462174.818	93.75	0.7696934998966753	2	0
353.2988601732068	0.7992837000638247	2	49	3462175.63	93.75	0.7828476000577211	2	0
354.0981438732706	0.7990737999789417	2	49	3462176.31	87.5	0.6635010000318289	1	0
354.89721767324954	0.8016143999993801	2	49	3462177.158	93.75	0.7123532	1	0
355.6988320732489	0.8000471000559628	2	49	3462177.982	100	0.73464	1	0
356.4988791733049	0.7998374002054334	2	49	3462178.712	87.5	0.6644872	1	0
357.2987165735103	0.8019266999326646	2	49	3462179.539	93.75	0.6915291999466717	1	0
358.1006433	0.7995723998174071	2	49	3462180.447	93.75	0.797837	2	0
358.9002156732604	0.7992056	2	49	3462181.246	93.75	0.7973970002494752	2	0
359.69942127354443	0.7993632	2	49	3462182.088	87.5	0.8403782998211682	2	0
360.49878447316587	0.8004732001572847	2	49	3462182.967	81.25	0.9199713002890348	2	0
361.29925767332315	0.8005804000422359	2	49	3462183.615	100	0.7667260998860002	1	0
362.0998380733654	0.8001788	2	49	3462184.424	93.75	0.7758424999192357	2	0
362.9000168731436	0.8015573001466691	2	49	3462185.26	93.75	0.8117929003201425	2	0
363.7015741732903	0.7999148000963032	1	49	3462186.003	100	0.7533005001023412	1	0
364.5014889733866	0.8015650999732316	2	49	3462187.038	68.75	0.9881865000352263	2	0
365.3030540733598	0.7997646001167595	2	49	3462187.714	87.5	0.8623301000334322	2	0
366.1028186734766	0.8016710998490453	2	49	3462188.499	87.5	0.8478476996533573	2	0
366.9044897733256	0.7992942999117076	2	49	3462189.258	93.75	0.8044822001829743	2	0
367.70378407323733	0.8005459001287818	2	49	3462189.994	100	0.7414468000642955	1	0
368.5043299733661	0.8016518000513315	2	49	3462190.655	81.25	0.6025647	1	0
369.30598177341744	0.7985311	2	49	3462191.385	75	0.5300473999232054	1	0
370.10451287357137	0.7991521996445954	2	49	3462192.225	81.25	0.5716360998339951	1	0
370.90366507321596	0.7999050999060273	2	49	3462193.001	75	0.5492222001776099	1	0
371.7035702	0.8010407001711428	2	49	3462193.829	81.25	0.5764534003101289	1	0
372.50461087329313	0.8002625000663102	2	49	3462194.799	100	0.7453721999190748	1	0
373.30487337335944	0.800584	2	49	3462195.633	93.75	0.7791443	2	0
374.1054573734291	0.7995671997778118	2	49	3462196.412	100	0.7578028999269009	1	0
374.9050245732069	0.8009874001145363	2	49	3462197.264	93.75	0.8100278000347316	2	0
375.70601197332144	0.8008770998567343	1	0	0	0	0	0	0
376.5068890731782	0.7986254999414086	2	49	3462199.235	43.75	1.1792936003766954	2	0
377.3055145731196	0.7993346001021564	2	49	3462199.748	81.25	0.8938395003788173	2	0
378.10484917322174	0.7999908002093434	2	49	3462200.458	93.75	0.8044741000048816	2	0
378.9048399734311	0.7998687997460365	1	49	3462201.078	81.25	0.6243710000999272	1	0
379.7047087731771	0.7986975000239909	2	49	3462202.028	93.75	0.7745849001221359	2	0
380.5034062732011	0.7984719001688063	2	49	3462202.831	93.75	0.7785821002908051	2	0
381.3018781733699	0.7989138998091221	2	49	3462203.6	100	0.7494800998829305	1	0
382.10079207317904	0.7995004002004862	2	49	3462204.429	93.75	0.7795684	2	0
382.9002924733795	0.7994602001272142	2	49	3462205.158	93.75	0.7092562997713685	1	0
383.69975267350674	0.8007271997630596	2	49	3462206.054	93.75	0.805692	2	0
384.5004798732698	0.8015466001816094	2	49	3462207.101	62.5	1.0520218000747263	2	0
385.3020264734514	0.8036990999244153	2	49	3462207.959	56.25	1.1088697998784482	2	0
386.1057255733758	0.8009585998952389	2	49	3462208.835	43.75	1.1807650001719594	2	0
386.90668417327106	0.8000738001428545	1	0	0	0	0	0	0
387.7067579734139	0.8003528998233378	2	49	3462210.058	93.75	0.8027285998687148	2	0
388.50711087323725	0.8004010999575257	2	49	3462210.91	87.5	0.8546605999581516	2	0
389.3075119731948	0.7996320002712309	2	49	3462211.555	93.75	0.6991785001009703	1	0
390.107144	0.8005337999202311	1	49	3462212.393	100	0.7377609997056425	1	0
390.90767777338624	0.7987620001658797	2	49	3462213.169	93.75	0.7127080000936985	1	0
391.7064397735521	0.7994305999018252	2	49	3462214.13	81.25	0.8745843996293843	2	0
392.50587037345394	0.8025019001215696	2	49	3462214.809	100	0.7547041000798345	1	0
393.3083722735755	0.7994238999672234	2	49	3462215.8	75	0.9433087999932468	2	0
394.10779617354274	0.7987934998236597	2	49	3462216.641	68.75	0.9842073996551335	2	0
394.9065896733664	0.8001226000487804	2	49	3462217.533	56.25	1.0780985997989774	2	0
395.7067122734152	0.8019976997748017	2	49	3462218.451	43.75	1.195464599877596	2	0
396.50871	0.8005532999522984	2	49	3462219.087	62.5	1.0298612001352012	2	0
397.3092632731423	0.8010352002456784	2	49	3462219.783	75	0.9254271001555026	2	0
398.11029847338796	0.7992098000831902	2	49	3462220.525	87.5	0.8665188001468778	2	0
398.90950827347115	0.8022674997337162	2	49	3462221.351	81.25	0.8925936999730766	2	0
399.71177577320486	0.7998848999850452	2	49	3462222.362	56.25	1.1012548003345728	2	0
400.5116606731899	0.7993919001892209	2	0	0	0	0	0	0
401.31105257337913	0.8013712000101805	2	49	3462223.293	62.5	0.43292339984327555	1	0
402.1124237733893	0.7989094997756183	2	49	3462224.171	68.75	0.5097293998114765	1	0
402.9113332731649	0.7999426000751555	2	49	3462224.882	62.5	0.42253540037199855	1	0
403.7112758732401	0.7996916999109089	2	49	3462226.205	75	0.9446731000207365	2	0
404.5109676	0.8018661001697183	2	49	3462226.944	81.25	0.8840106003917754	2	0
405.3128336733207	0.8008300000801682	2	49	3462227.522	87.5	0.6602289001457393	1	0
406.1136636734009	0.8015078	1	49	3462228.262	81.25	0.5995764001272619	1	0
406.91517147328705	0.7990287002176046	2	49	3462229.446	68.75	0.9820574000477791	2	0
407.71420017350465	0.8008486996404827	1	49	3462229.929	87.5	0.6659267996437848	1	0
408.51504887314513	0.7995249000377953	2	49	3462230.849	93.75	0.7850519004277885	2	0
409.31457377318293	0.7998311002738774	2	49	3462231.766	81.25	0.9025717000477016	2	0
410.1144048734568	0.8004598999395967	2	49	3462232.557	81.25	0.8939172998070717	2	0
410.9148647733964	0.7974686999805272	2	49	3462233.33	87.5	0.8663491001352668	2	0
411.71233347337693	0.8008090001530945	2	49	3462234.076	93.75	0.8153610001318157	2	0
412.5131425	0.8016115999780595	2	49	3462234.979	81.25	0.9174323999322951	2	0
413.3147540735081	0.7988011999987066	2	49	3462235.732	87.5	0.8684975	2	0
414.1135552735068	0.8049388998188078	1	0	0	0	0	0	0
414.9184941733256	0.7997129000723362	2	49	3462237.101	87.5	0.6338920998387039	1	0
415.71820707339793	0.8011650997214019	1	49	3462238.148	81.25	0.8810328999534249	2	0
416.51937217311934	0.8029104000888765	2	49	3462239.02	75	0.9519027001224458	2	0
417.3222825732082	0.8006446999497712	1	0	0	0	0	0	0
418.1229273	0.7988959001377225	2	49	3462240.537	87.5	0.8654395001940429	2	0
418.9218231732957	0.7997897998429835	2	49	3462241.554	56.25	1.0836932002566755	2	0
419.7216129731387	0.8006037003360689	2	49	3462242.408	50	1.1377487001009285	2	0
420.52221667347476	0.7998102996498346	2	49	3462243.184	56.25	1.1132713998667896	2	0
421.3220269731246	0.7983501004055142	2	0	0	0	0	0	0
422.1203770735301	0.7996834996156394	2	49	3462244.193	75	0.5240596998482943	1	0
422.92006057314575	0.7990900999866426	1	49	3462244.963	68.75	0.4946039002388716	1	0
423.7191506731324	0.7985747000202537	2	49	3462246.075	93.75	0.8075258	2	0
424.51772537315264	0.7984155002050102	2	49	3462246.758	93.75	0.6919474001042545	1	0
425.31614087335765	0.7998103997670114	2	49	3462247.934	62.5	1.0695577999576926	2	0
426.11595127312467	0.7996448003686965	2	49	3462248.803	50	1.138622600119561	2	0
426.91559607349336	0.7994061997160316	2	49	3462249.451	68.75	0.9870746997185051	2	0
427.7150022732094	0.8019854999147356	2	49	3462250.283	68.75	1.0198417003266513	2	0
428.51698777312413	0.7994290003553033	2	49	3462250.981	81.25	0.9158181003294885	2	0
429.31641677347943	0.8008644999936223	2	49	3462251.685	93.75	0.8203045	2	0
430.11728127347305	0.7995058996602893	2	49	3462252.341	93.75	0.6753730000928044	1	0
430.91678717313334	0.8008103002794087	2	49	3462253.185	93.75	0.7199233002029359	1	0
431.71759747341275	0.8010038998909295	2	49	3462253.934	87.5	0.6681552999652922	1	0
432.5186013733037	0.7989115999080241	1	49	3462254.766	93.75	0.6985661000944674	1	0
433.3175129732117	0.8029394000768661	2	49	3462255.539	87.5	0.6733554000966251	1	0
434.1204523732886	0.8023569001816213	1	0	0	0	0	0	0
434.9228092734702	0.8005466996692121	2	49	3462257.143	93.75	0.6712380000390112	1	0
435.7233559731394	0.7984494999982417	1	0	0	0	0	0	0
436.52180547313765	0.7997036003507674	2	49	3462258.782	93.75	0.7112682000733912	1	0
437.3215090734884	0.8014691998250782	2	49	3462259.635	100	0.7650159997865558	1	0
438.1229782733135	0.8029490998014808	2	49	3462260.309	87.5	0.6370680998079479	1	0
438.9259274	0.7997590000741184	2	49	3462261.288	93.75	0.8133843000978231	2	0
439.7256863731891	0.8000175999477506	2	49	3462262.284	68.75	1.0096096000634134	2	0
440.52570397313684	0.8011876000091434	2	49	3462262.997	81.25	0.9223058000206947	2	0
441.3268916	0.7999822003766894	2	49	3462263.819	75	0.9434166001155972	2	0
442.1268737735227	0.8028327999636531	1	0	0	0	0	0	0
442.9297065734863	0.7990731000900269	2	49	3462265.065	81.25	0.5864031999371946	1	0
443.72877967357635	0.8033665996044874	2	49	3462265.975	93.75	0.6979282	1	0
444.53214627318084	0.8000723	2	49	3462266.821	100	0.7400001999922097	1	0
445.3322185734287	0.8017488000914454	2	49	3462267.636	100	0.7550001000054181	1	0
446.13396737352014	0.8004243997856975	2	0	0	0	0	0	0
446.93439177330583	0.8013358	2	49	3462269.024	75	0.5407688999548554	1	0
447.7357275732793	0.7994702002033591	2	49	3462270.192	81.25	0.9075799002312124	2	0
448.53519777348265	0.7999307997524738	1	0	0	0	0	0	0
449.3351285732351	0.8007649001665413	2	49	3462271.719	87.5	0.8352541	2	0
450.13589347340167	0.8004848998971283	2	49	3462272.514	87.5	0.8294304	2	0
450.9363783732988	0.8011699002236128	2	49	3462273.32	87.5	0.8349231998436153	2	0
451.7375482735224	0.7999011999927461	2	49	3462274.214	75	0.9278258	2	0
452.53744947351515	0.7998060998506844	2	49	3462274.95	87.5	0.8641061000525951	2	0
453.33725557336584	0.8011420997790992	2	49	3462275.756	87.5	0.8700902001000941	2	0
454.13839767314494	0.8000264000147581	2	49	3462276.602	81.25	0.9151375000365078	2	0
454.9384240731597	0.7990581002086401	2	49	3462277.163	93.75	0.6762155001051724	1	0
455.73748217336833	0.8061393001116812	2	49	3462278.131	87.5	0.8450285000726581	2	0
456.5436215	0.8010859997011721	1	0	0	0	0	0	0
457.3447074731812	0.7998196	2	49	3462279.835	75	0.9418689	2	0
458.1445270734839	0.7999928998760879	2	49	3462280.579	81.25	0.8858499000780284	2	0
458.94452	0.8004339002072811	2	49	3462281.221	100	0.7282720999792218	1	0
459.7449538735673	0.8007550998590887	2	49	3462281.989	93.75	0.6959277996793389	1	0
460.5457089734264	0.7989908996969461	2	49	3462282.851	100	0.7567714997567236	1	0
461.3446998731233	0.7961645000614226	2	49	3462283.527	87.5	0.6339460001327097	1	0
462.14086437318474	0.7987812	2	49	3462284.346	87.5	0.6568845002911985	1	0
462.9396455734968	0.8000884996727109	2	49	3462285.185	93.75	0.6970921000465751	1	0
463.73973407316953	0.7995897000655532	2	49	3462285.967	93.75	0.6783338002860546	1	0
464.5393237732351	0.8002182999625802	2	49	3462286.709	87.5	0.6215837001800537	1	0
465.33954207319766	0.7956084003672004	1	49	3462287.606	93.75	0.7181887002661824	1	0
466.13515047356486	0.7988625997677445	2	49	3462288.515	87.5	0.8309491998516023	2	0
466.9340130733326	0.7994997999630868	2	49	3462289.327	87.5	0.8439675001427531	2	0
467.7335128732957	0.8022757000289857	2	49	3462290.071	93.75	0.7893118001520634	2	0
468.5357885733247	0.7988912002183497	2	49	3462291.005	81.25	0.9210596000775695	2	0
469.33467977354303	0.7993793999776244	2	49	3462291.63	100	0.7472373996861279	1	0
470.13405917352065	0.7987772999331355	2	49	3462292.443	100	0.7602023999206722	1	0
470.9328364734538	0.8008661000058055	2	49	3462293.352	87.5	0.8701802999712527	2	0
471.7337025734596	0.7993189999833703	2	49	3462294.01	100	0.7282165996730328	1	0
472.53302157344297	0.8003575997427106	2	49	3462294.687	81.25	0.6052947	1	0
473.3333791731857	0.8003078000620008	1	49	3462295.398	68.75	0.5161603	1	0
474.1336869732477	0.8017564001493156	2	49	3462296.32	87.5	0.6374683	1	0
474.9354434	0.7989892000332475	2	49	3462297.165	93.75	0.6805477999150753	1	0
475.73443257343024	0.8018722999840975	2	49	3462298.006	100	0.7226895997300744	1	0
476.53630487341434	0.8006072	2	49	3462298.744	87.5	0.6589994998648763	1	0
477.3369121	0.8005989999510348	2	49	3462299.479	81.25	0.5931800003163517	1	0
478.1375111	0.8023073002696037	2	49	3462300.328	87.5	0.6421803003177047	1	0
478.9398183734156	0.7995850997976959	2	49	3462301.171	93.75	0.6821646997705102	1	0
479.7394034732133	0.7997560002841055	1	49	3462301.847	75	0.5588014000095427	1	0
480.5391594734974	0.8006143998354673	1	0	0	0	0	0	0
481.3397738733329	0.8001685999333858	2	49	3462303.638	100	0.7497569997794926	1	0
482.1399424732663	0.8005618001334369	2	49	3462304.517	87.5	0.8286063000559807	2	0
482.9405042733997	0.7988589997403324	2	49	3462305.223	100	0.7339201997965574	1	0
483.73936327314004	0.8016785001382232	2	49	3462306.219	75	0.9312498001381755	2	0
484.54104177327827	0.8135059	2	49	3462307.194	56.25	1.1039307001046836	2	0
485.3545476733707	0.8000719	2	49	3462307.792	81.25	0.8891524998471141	2	0
486.15461957314983	0.8013182003051043	2	49	3462308.438	100	0.7346881004050374	1	0
486.95593777345493	0.8010833999142051	2	49	3462309.049	75	0.5445475000888109	1	0
487.75702117336914	0.8001865	2	49	3462309.913	81.25	0.6075891000218689	1	0
488.5572076733224	0.8003270998597145	2	49	3462310.76	87.5	0.6542605	1	0
489.3575347731821	0.8001960003748536	2	49	3462311.407	68.75	0.5011553	1	0
490.1577308	0.7988661997951567	2	49	3462312.373	87.5	0.6670712996274233	1	0
490.95659697335213	0.7990011000074446	2	49	3462313.181	93.75	0.6758941002190113	1	0
491.7555980733596	0.8018586998805404	1	49	3462313.869	75	0.5648857997730374	1	0
492.5574567732401	0.8003671001642942	2	49	3462314.762	87.5	0.6562033002264798	1	0
493.3578238734044	0.7996143000200391	2	49	3462315.549	87.5	0.6427994999103248	1	0
494.15743817342445	0.8000349998474121	2	49	3462316.407	93.75	0.7012034999206662	1	0
494.95747317327186	0.7994452002458274	1	49	3462317.135	87.5	0.6290938998572528	1	0
495.7569183735177	0.8006750997155905	2	49	3462318.147	87.5	0.8410598998889327	2	0
496.5575934732333	0.7987979999743402	2	49	3462318.889	93.75	0.7831883002072573	2	0
497.3563914732076	0.8024659999646246	2	49	3462319.55	87.5	0.6455113003030419	1	0
498.15885747317225	0.8013755003921688	2	49	3462320.42	93.75	0.7121968003921211	1	0
498.9602329735644	0.7983474996872246	2	49	3462321.112	81.25	0.6036892998963594	1	0
499.75858047325164	n/a	0	49	3462321.933	87.5	0.6262290002778172	1	0