onset	duration	offset	trial	item	RT	response
57.5098	3.655013300012797	61.164813300012796	1	att	1.21005270001478	7.0
61.1655633001357	6.167893599951597	67.3334569000873	1	past	1.28292519995011	1.0
67.3341540001567	3.399114199914095	70.7332682000708	1	fut	0.615215199999511	8.0
70.7339601001005	2.6320104999468015	73.3659706000473	1	self	1.02434809994884	9.0
73.3667356000516	2.117888099979595	75.4846237000312	1	ppl	0.778618199983612	2.0
75.4854682000588	2.333108999999297	77.8185772000581	1	arou	1.0351714999415	7.0
77.8196092	2.861852500121998	80.681461700122	1	aff	1.33038710011169	3.0
80.6821947001155	2.8830343000590943	83.5652290001746	1	eng	1.51868449989706	8.0
83.5659443001497	2.9237701999951042	86.4897145001448	1	mvmt	1.08431439986452	7.0
86.4904985999458	4.014994300203	90.5054929001488	1	delib	0.857511400012299	1.0
90.5066528000168	3.20749639999201	93.7141492000088	1	image	1.65555289993063	9.0
93.71491870016379	1.1656450999430064	94.8805638001068	1	ling	0.589831899851561	6.0
94.8815659001708	2.579524499829006	97.4610903999998	1	conf	1.40200919983909	8.0
146.34793740010377	3.3690962998660154	149.7170336999698	2	att	1.23819969990291	8.0
149.7182049000408	4.956409600097004	154.6746145001378	2	past	1.19261009991169	7.0
154.6753955000318	2.9350117999130134	157.61040729994482	2	fut	1.05698990006931	7.0
157.61133020010277	3.263142300072019	160.8744725001748	2	self	1.02637129998766	7.0
160.8752502001588	1.8567945999100175	162.73204480006882	2	ppl	0.412741999840364	9.0
162.7331394000218	1.9107315000139806	164.64387090003578	2	arou	0.971629499923438	7.0
164.6444937001218	1.8813230998349866	166.5258167999568	2	aff	0.858537199907005	7.0
166.5265386000978	3.382320099975999	169.9088587000738	2	eng	1.57053779996932	4.0
169.90972039999878	2.5278203000780195	172.4375407000768	2	mvmt	0.731946900021285	8.0
172.4386300999908	2.556512300158005	174.9951424001488	2	delib	0.919441299978644	6.0
174.9958660000708	3.381964599946002	178.3778306000168	2	image	2.17671469994821	9.0
178.3785162001148	1.760838899995008	180.1393551001098	2	ling	0.955732699949294	6.0
180.14015840005578	3.613839699886995	183.75399809994278	2	conf	1.5473984000273	9.0
232.6563221999678	4.257966100005007	236.9142882999728	3	att	1.41756000020541	2.0
236.91686530003778	3.7996849000919894	240.71655020012977	3	past	0.969247800065205	1.0
240.7172692000168	1.4352865000259953	242.1525557000428	3	fut	0.311981200007722	1.0
242.15351059997982	2.744784400098979	244.8982950000788	3	self	1.50599320000038	9.0
244.89892310008884	2.1571553000249537	247.0560784001138	3	ppl	1.03382620005868	2.0
247.05695980007283	2.320875900098997	249.37783570017183	3	arou	1.11573800002225	1.0
249.3785762001068	1.997970799914981	251.3765470000218	3	aff	1.51906919991598	5.0
251.3772031000118	3.848774899961029	255.22597799997283	3	eng	2.17154620005749	4.0
255.2270261001538	2.472741100006033	257.69976720015984	3	mvmt	0.898637699894607	8.0
257.7004869001688	2.528388199861979	260.2288751000308	3	delib	1.3564960998483	2.0
260.2295610000148	2.1895320001059986	262.4190930001208	3	image	1.46349300001748	6.0
262.41981760004984	3.4504335999959608	265.8702512000458	3	ling	0.917443499900401	1.0
265.8710153001598	2.613791499985041	268.48480680014484	3	conf	1.27690339996479	8.0
319.36257440003084	4.7688033999879735	324.1313778000188	4	att	1.4682939001359	8.0
324.1314180999768	2.6827575999769806	326.8141756999538	4	past	0.98478540009819	1.0
326.8141979001228	1.6708004998509978	328.4849983999738	4	fut	1.01663189986721	6.0
328.48503460001683	4.399742600041975	332.8847772000588	4	self	1.69697170006111	7.0
332.8848036000278	1.7863088999870342	334.67111250001483	4	ppl	0.533919400069863	9.0
334.67113440006483	2.0449008001019706	336.7160352001668	4	arou	0.614654799923301	8.0
336.71605060005083	3.0003740999389947	339.71642469998983	4	aff	0.894199500093237	1.0
339.7164421001218	5.170896199998026	344.88733830011984	4	eng	1.63685589982197	7.0
344.8873623999538	2.6026620001060223	347.49002440005984	4	mvmt	0.871958000119776	6.0
347.49004039994884	2.246109900064994	349.73615030001383	4	delib	1.01902250014246	2.0
349.7361657001308	3.0552298999400023	352.7913956000708	4	image	1.0747291999869	9.0
352.7914139000938	3.129874899983008	355.9212888000768	4	ling	0.58062359993346	6.0
355.9213051000848	2.0976319999900284	358.0189371000748	4	conf	1.10929509997368	8.0
409.86757130001183	3.059460200136982	412.9270315001488	5	att	1.54043890000321	2.0
412.92705259995984	3.2640186001079883	416.1910712000678	5	past	0.843007900053635	1.0
416.19110269995883	2.378390300087972	418.5694930000468	5	fut	0.408002600073814	8.0
418.56951559998583	2.6515667000790017	421.22108230006484	5	self	0.669610999990255	9.0
421.2211049000038	2.7349394001059864	423.9560443001098	5	ppl	0.932324000168592	1.0
423.9560705999608	2.9413193000950173	426.8973899000558	5	arou	0.837522400077432	7.0
426.8974120999918	2.365948700114018	429.26336080010583	5	aff	1.47917399997823	3.0
429.26337690011184	3.2100811998819836	432.4734580999938	5	eng	1.04069649986923	7.0
432.4734971000578	2.5682542000440094	435.0417513001018	5	mvmt	0.890785800060257	3.0
435.0417727000318	2.5671200000210206	437.6088927000528	5	delib	0.923238800140098	1.0
437.60890980006684	3.650799300055951	441.2597091001228	5	image	1.21583739994094	3.0
441.2597258001338	4.043937399983008	445.30366320011683	5	ling	1.13744139997289	3.0
445.3036796000088	2.6298257000750027	447.9335053000838	5	conf	1.1774991999846	7.0
498.76887870009585	3.538000599945917	502.30687930004177	6	att	1.5056241999846	7.0
502.30690029996885	3.336833500070952	505.6437338000398	6	past	0.629063700092956	1.0
505.64375750010385	1.6050700000489542	507.2488275001528	6	fut	0.889238300034776	6.0
507.24884450004885	4.433182599954989	511.68202710000384	6	self	0.98081269999966	7.0
511.6820451001408	1.9830426999830024	513.6650878001237	6	ppl	0.343592299846932	10.0
513.6651102999458	1.9487585001629668	515.6138688001088	6	arou	0.827316100010648	6.0
515.6138964000858	1.8376519999000038	517.4515483999858	6	aff	0.757870099972934	7.0
517.4515662001218	2.922229100017944	520.3737953001397	6	eng	0.705264299875125	5.0
520.3738113000287	3.606904699933011	523.9807159999617	6	mvmt	1.30628179991618	9.0
523.9807400001448	2.653756899992004	526.6344969001368	6	delib	0.58553299983032	2.0
526.6345146001547	3.019704499981003	529.6542191001357	6	image	1.19421659992076	7.0
529.6542415999578	1.1700617000459488	530.8243033000037	6	ling	0.775864200200886	5.0
530.8243258000588	2.771186999975953	533.5955128000347	6	conf	1.6444856999442	6.0
