onset	duration	cue	constant1	timestamp	stimulus_coherence	response_time	response	constant2
20.378142103319988	0.8402539000380784	2	49	1562091.106	68.75	1.075831800000742	2	0
21.218396003358066	0.8333251001313329	2	49	1562092.028	56.25	1.1576342000626028	2	0
22.0517211	0.8218795999418944	2	49	1562092.558	87.5	0.8544077000115067	2	0
22.873600703431293	0.8161966998595744	2	49	1562093.359	93.75	0.8336088999640197	2	0
23.689797403290868	0.8811674	1	0	0	0	0	0	0
24.570964803453535	0.8119796998798847	2	49	1562094.886	87.5	0.6631742999888957	1	0
25.38294450333342	0.8252064001280814	2	49	1562095.966	81.25	0.9306020999792963	2	0
26.2081509	0.8154324998613447	2	49	1562096.65	100	0.7892111998517066	1	0
27.023583403322846	0.8254313000943512	1	0	0	0	0	0	0
27.849014703417197	0.8138884	2	49	1562097.934	62.5	0.4324510998558253	1	0
28.66290310327895	0.8133179000578821	2	49	1562098.95	87.5	0.6353410000447184	1	0
29.476221003336832	0.8190214	2	49	1562100.041	81.25	0.9124458	2	0
30.295242403401062	0.8171631000004709	2	49	1562100.817	87.5	0.8700188999064267	2	0
31.112405503401533	0.8328946998808533	2	49	1562101.64	87.5	0.8758104	2	0
31.945300203282386	0.8170549001079053	2	49	1562102.44	87.5	0.8429815000854433	2	0
32.76235510339029	0.8131273000035435	2	49	1562103.212	93.75	0.7977396999485791	2	0
33.575482403393835	0.8156741000711918	2	49	1562104.078	87.5	0.8508228999562562	2	0
34.39115650346503	0.8179569	2	49	1562104.863	93.75	0.8192565999925137	2	0
35.209113403456286	0.8189012999646366	2	49	1562105.858	75	0.9968780998606235	2	0
36.02801470342092	0.8181259999983013	2	49	1562106.529	87.5	0.8486802000552416	2	0
36.84614070341922	0.8165233999025077	2	49	1562107.364	87.5	0.8656734998803586	2	0
37.66266410332173	0.8241052001249045	2	49	1562108.077	100	0.7619775000493973	1	0
38.486769303446636	0.8158585999626666	2	49	1562108.962	93.75	0.8229757999069989	2	0
39.3026279	0.8127200999297202	2	49	1562109.713	100	0.7581394999288023	1	0
40.11534800333902	0.8205695000942796	2	49	1562110.49	93.75	0.7226013999897987	1	0
40.9359175	0.8107836998533458	1	49	1562111.411	93.75	0.8227249	2	0
41.74670120328665	0.8100717000197619	1	49	1562112.252	87.5	0.8530818000435829	2	0
42.55677290330641	0.8161555000115186	2	49	1562113.017	93.75	0.8079316	2	0
43.37292840331793	0.8142028001602739	2	49	1562113.861	93.75	0.8356763999909163	2	0
44.1871312	0.8155376999638975	2	49	1562114.59	100	0.7506027	1	0
45.0026689	0.8217879999428988	1	49	1562115.458	93.75	0.8030790998600423	2	0
45.8244569	0.8120053000748158	2	49	1562116.565	62.5	1.0882918999996036	2	0
46.636462203459814	0.8172609999310225	2	0	0	0	0	0	0
47.45372320339084	0.8148735999129713	2	0	0	0	0	0	0
48.26859680330381	0.8268047000747174	1	49	1562118.724	93.75	0.8034403000492603	2	0
49.095401503378525	0.8196050999686122	2	49	1562119.524	100	0.7768637998960912	1	0
49.91500660334714	0.8055205000564456	2	49	1562120.222	87.5	0.6553144999779761	1	0
50.72052710340358	0.8098607999272645	2	49	1562121.084	93.75	0.7114681999664754	1	0
51.53038790333085	0.8212111000902951	2	49	1562121.914	93.75	0.7317022001370788	1	0
52.35159900342114	0.8146603000350296	2	49	1562122.711	93.75	0.7074098000302911	1	0
53.16625930345617	0.8170562998857349	2	49	1562123.486	87.5	0.6678349	1	0
53.98331560334191	0.8116786000318825	2	49	1562124.472	87.5	0.8366356999613345	2	0
54.79499420337379	0.8183808999601752	2	49	1562125.295	87.5	0.8481004000641406	2	0
55.613375103333965	0.8195911999791861	2	49	1562126.152	87.5	0.8859935000073165	2	0
56.43296630331315	0.8173839000519365	2	49	1562126.9	93.75	0.8145808	2	0
57.25035020336509	0.8109701001085341	1	0	0	0	0	0	0
58.06132030347362	0.8147127998527139	2	49	1562128.478	100	0.7642498000059277	1	0
58.876033103326336	0.8185813000891358	2	49	1562129.229	93.75	0.7011663999874145	1	0
59.69461440341547	0.8158958000130951	2	49	1562130.062	93.75	0.7148388000205159	1	0
60.51051020342857	0.8196638999506831	1	49	1562130.844	87.5	0.6816060999408364	1	0
61.33017410337925	0.8140656	2	49	1562131.65	87.5	0.667289	1	0
62.14423970342614	0.8173425998538733	1	49	1562132.615	93.75	0.8189745000563562	2	0
62.96158230328001	0.8208012999966741	2	49	1562133.491	87.5	0.8767632	2	0
63.782383603276685	0.8198915000539273	2	49	1562134.265	93.75	0.8299929001368582	2	0
64.60227510333061	0.8281016000546515	2	49	1562135.025	100	0.7700934000313282	1	0
65.43037670338526	0.8129386000800878	2	49	1562135.971	87.5	0.8889484999235719	2	0
66.24331530346535	0.8289517	2	49	1562136.746	87.5	0.8502984999213368	2	0
67.07226700335741	0.8118903001304716	2	49	1562137.62	81.25	0.8951401999220252	2	0
67.88415730348788	0.8115356999915093	2	49	1562138.422	81.25	0.8852781997993588	2	0
68.69569300347939	0.8248228998854756	2	49	1562139.141	100	0.7927590999752283	1	0
69.52051590336487	0.8090721000917256	2	49	1562139.881	93.75	0.7081077999901026	1	0
70.32958800345659	0.8121113998349756	2	49	1562140.806	93.75	0.8238166000228375	2	0
71.14169940329157	0.8179060001857579	2	49	1562141.666	87.5	0.8718712001573294	2	0
71.95960540347733	0.8242647999431938	2	49	1562142.42	93.75	0.8082994997967035	2	0
72.78387020342052	0.8083244999870658	1	49	1562143.158	93.75	0.7222778	1	0
73.59219470340759	0.8237443999387324	2	49	1562143.761	68.75	0.5166232	1	0
74.41593910334632	0.8204125999473035	2	49	1562144.747	87.5	0.6787946000695229	1	0
75.23635170329362	0.8189589001704007	2	49	1562145.751	87.5	0.8623242999892682	2	0
76.05531060346402	0.8197149	2	49	1562146.731	68.75	1.0236229998990893	2	0
76.87502550333738	0.8097833001520485	2	49	1562147.429	81.25	0.9020808001514524	2	0
77.68480880348943	0.8132028998807073	2	49	1562148.148	93.75	0.8109565998893231	2	0
78.49801170337014	0.8134077999275178	2	49	1562148.886	100	0.7358683999627829	1	0
79.31141950329766	0.8124339000787586	2	49	1562149.652	93.75	0.688696	1	0
80.12385340337642	0.8190613000188023	2	49	1562150.498	93.75	0.7220338999759406	1	0
80.94291470339522	0.8168959999457002	1	0	0	0	0	0	0
81.75981070334092	0.8188724999781698	1	49	1562151.897	68.75	0.4853387	1	0
82.57868320331909	0.8093405000399798	2	49	1562152.863	87.5	0.6321052999701351	1	0
83.38802370335907	0.8230316999834031	2	49	1562153.748	93.75	0.7080139999743551	1	0
84.21105540334247	0.8184639001265168	2	49	1562154.627	100	0.7642187001183629	1	0
85.02951930346899	0.8114942000247538	2	49	1562155.409	93.75	0.7277772	1	0
85.84101350349374	0.8083824999630451	2	49	1562156.292	93.75	0.7983405999839306	2	0
86.64939600345679	0.8141949998680502	2	49	1562157.06	100	0.7580517998430878	1	0
87.46359100332484	0.8083438000176102	2	49	1562157.979	87.5	0.8635071001481265	2	0
88.27193480334245	0.8233970000874251	2	49	1562158.824	81.25	0.9002058999612927	2	0
89.09533180342987	0.8098659	2	49	1562159.583	93.75	0.8358201999217272	2	0
89.90519770327955	0.8151480001397431	2	49	1562160.426	87.5	0.8689143999945372	2	0
90.7203457	0.8244518998544663	2	49	1562161.235	87.5	0.8627943000756204	2	0
91.54479760327376	0.8087031000759453	2	49	1562162.09	81.25	0.8933277002070099	2	0
92.35350070334971	0.8182821001391858	2	49	1562162.873	87.5	0.8677984999958426	2	0
93.1717828	0.8187841000035405	2	49	1562163.839	68.75	1.0148140999954194	2	0
93.99056690349244	0.8209059999790043	1	0	0	0	0	0	0
94.81147290347144	0.8098330998327583	2	49	1562165.368	81.25	0.9047975998837501	2	0
95.621306	0.8118791000451893	2	49	1562166.145	87.5	0.8712375999893993	2	0
96.43318510334939	0.8228295	2	49	1562167.097	68.75	1.0112251001410186	2	0
97.25601460342295	0.8173128	1	0	0	0	0	0	0
98.07332740328275	0.8124037000816315	2	49	1562168.443	93.75	0.7174033999908715	1	0
98.88573110336438	0.8121382999233902	2	49	1562169.333	93.75	0.7948253999929875	2	0
99.69786940328777	0.8184731001965702	2	49	1562170.134	100	0.7838773000985384	1	0
100.51634250348434	0.8197504999116063	2	49	1562171.002	93.75	0.8339283999521285	2	0
101.33609300339594	0.8194349999539554	2	49	1562171.819	93.75	0.8305945000611246	2	0
102.1555280033499	0.8179440000094473	2	49	1562172.804	68.75	0.9960076999850571	2	0
102.97347200335935	0.8160177001263946	2	49	1562173.55	81.25	0.9243407000321895	2	0
103.78948970348574	0.8199318998958915	2	49	1562174.362	81.25	0.9204007	2	0
104.60942160338163	0.8201836999505758	2	49	1562175.094	93.75	0.8324154999572784	2	0
105.42960530333221	0.8159279001411051	2	49	1562175.758	87.5	0.6759330001659691	1	0
106.24553320347331	0.8230508000124246	2	49	1562176.66	100	0.7627037	1	0
107.06858400348574	0.8199137998744845	2	49	1562177.415	93.75	0.6941068000160158	1	0
107.88849780336022	0.8276547999121249	2	49	1562178.212	87.5	0.6713682000990957	1	0
108.71615260327235	0.8175910001154989	2	49	1562179.098	93.75	0.7297008000314236	1	0
109.53374360338785	0.8135816999711096	2	49	1562179.905	93.75	0.7187115	1	0
110.34732530335896	0.8180206001270562	1	49	1562180.94	81.25	0.9403852999676019	2	0
111.16534590348601	0.8153567998670042	2	49	1562181.502	87.5	0.6845013999845833	1	0
111.98070270335302	0.8167205001227558	2	49	1562182.282	87.5	0.6491948000621051	1	0
112.79742320347577	0.8158701	2	49	1562183.121	87.5	0.6715893999207765	1	0
113.61329330340959	0.8149894999805838	1	49	1562183.984	93.75	0.7188661000691354	1	0
114.42828280339018	0.8190878999885172	2	49	1562185.028	75	0.9476441000588238	2	0
115.24737070337869	0.8187446999363601	2	49	1562185.923	68.75	1.0237666999455541	2	0
116.06611540331505	0.8109949000645429	2	49	1562186.496	100	0.7778025001753122	1	0
116.8771103033796	0.8170898999087512	2	49	1562187.262	93.75	0.7329404999036342	1	0
117.69420020328835	0.8136911001056433	1	0	0	0	0	0	0
118.50789130339399	0.8162106000818312	2	49	1562188.917	100	0.7564967998769134	1	0
119.32410190347582	0.8207723998930305	2	49	1562189.75	100	0.7739080998580903	1	0
120.14487430336885	0.8186924001201987	1	0	0	0	0	0	0
120.96356670348905	0.8182356997858733	2	49	1562191.354	100	0.7386254998855293	1	0
121.78180240327492	0.8167985000181943	1	0	0	0	0	0	0
122.59860090329312	0.8118442001286894	2	49	1562192.997	100	0.7466223000083119	1	0
123.41044510342181	0.8185678999871016	1	49	1562193.824	100	0.7614539000205696	1	0
124.22901300340891	0.8146575998980552	2	49	1562194.552	87.5	0.6713016000576317	1	0
125.04367060330696	0.8139977999962866	2	49	1562195.442	100	0.7466579000465572	1	0
125.85766840330325	0.8325635001529008	2	49	1562196.213	93.75	0.7035764001775533	1	0
126.69023190345615	0.8137649	1	0	0	0	0	0	0
127.50399680342525	0.8124881000258029	2	49	1562197.751	81.25	0.5943894998636097	1	0
128.31648490345106	0.8218884998932481	2	49	1562198.47	68.75	0.5008669998496771	1	0
129.1383734033443	0.8131816000677645	2	49	1562199.297	68.75	0.5065177001524717	1	0
129.95155500341207	0.8187007999513298	2	49	1562200.119	68.75	0.5149882999248803	1	0
130.7702558033634	0.8157216000836343	2	49	1562200.954	75	0.5312554999254644	1	0
131.58597740344703	0.8120533998589963	2	49	1562202.062	93.75	0.8234289998654276	2	0
132.39803080330603	0.8104686001315713	2	49	1562202.905	87.5	0.8551058999728411	2	0
133.2084994034376	0.8232294998597354	2	49	1562204.05	50	1.1894036999437958	2	0
134.03172890329733	0.8118982000742108	2	49	1562204.598	81.25	0.9136843	2	0
134.84362710337155	0.8206199000123888	2	49	1562205.397	81.25	0.9009762001223862	2	0
135.66424700338393	0.8231301000341773	1	0	0	0	0	0	0
136.4873771034181	0.8122630999423563	1	0	0	0	0	0	0
137.29964020336047	0.8159739999100566	2	49	1562207.677	93.75	0.7250803001224995	1	0
138.11561420327052	0.8237599001731724	2	49	1562208.416	87.5	0.6480041001923382	1	0
138.9393741034437	0.8196268999017775	2	49	1562209.231	81.25	0.6392578	1	0
139.75900100334547	0.8199716999661177	2	49	1562210.329	81.25	0.9180918000638485	2	0
140.5789727033116	0.8249647000338882	2	49	1562211.107	87.5	0.8758402	2	0
141.40393740334548	0.8130143999587744	2	49	1562211.784	93.75	0.7278444000985473	1	0
142.21695180330426	0.8122531000990421	2	49	1562212.621	100	0.7519600000232458	1	0
143.0292049034033	0.8184998000506312	2	49	1562213.67	75	0.9887019000016153	2	0
143.84770470345393	0.8197418998461217	1	0	0	0	0	0	0
144.66744660330005	0.8063899001572281	1	49	1562215.308	68.75	0.9888285000342876	2	0
145.47383650345728	0.8112738998606801	2	0	0	0	0	0	0
146.28511040331796	0.808837	2	49	1562216.579	87.5	0.6418622999917716	1	0
147.09394740336575	0.8146891000214964	2	49	1562217.404	87.5	0.6582679	1	0
147.90863650338724	0.8213328	2	49	1562218.182	81.25	0.6213779000099748	1	0
148.72996930335648	0.8154515000060201	2	49	1562219.07	93.75	0.6880219001322985	1	0
149.5454208033625	0.8195446999743581	2	49	1562219.9	93.75	0.7020455000456423	1	0
150.36496550333686	0.8167051000054926	2	49	1562220.704	93.75	0.6872483000624925	1	0
151.18167060334235	0.8242916001472622	2	49	1562221.474	81.25	0.6404296001419425	1	0
152.00596220348962	0.8113913	2	49	1562222.499	87.5	0.8412118998821825	2	0
152.81735350331292	0.8221444999799132	2	49	1562223.286	93.75	0.8159835000988096	2	0
153.63949800329283	0.8110323001164943	2	49	1562224.174	87.5	0.8826092001982033	2	0
154.45053030340932	0.8195616998709738	2	49	1562224.896	100	0.7936913999728858	1	0
155.2700920032803	0.8113861000165343	2	49	1562225.707	93.75	0.7842478000093251	2	0
156.08147810329683	0.8297990001738071	2	49	1562226.571	93.75	0.8368828999809921	2	0
156.91127710347064	0.8339264998212457	2	49	1562227.419	93.75	0.8559508000034839	2	0
157.74520360329188	0.8321179000195116	2	49	1562228.451	68.75	1.0534179999958724	2	0
158.5773215033114	0.8377716999966651	2	49	1562229.015	100	0.7859722001012415	1	0
159.41509320330806	0.8414144001435488	2	49	1562229.973	87.5	0.9061382000800222	2	0
160.2565076034516	0.8270067998673767	1	0	0	0	0	0	0
161.0835144	0.8261578001547605	2	49	1562231.643	81.25	0.9071557000279427	2	0
161.90967220347375	0.8175854999572039	2	49	1562232.208	87.5	0.6457381998188794	1	0
162.72725770343095	0.8140769000165164	2	49	1562233.118	100	0.7381553000304848	1	0
163.54133460344747	0.8188384999521077	2	49	1562233.95	100	0.7561438998673111	1	0
164.36017310339957	0.8385455999523401	2	49	1562234.678	87.5	0.6652983999811113	1	0
165.19871870335191	0.8412244	2	49	1562235.541	87.5	0.6897692000493407	1	0
166.0399431034457	0.8215866000391543	1	49	1562236.379	87.5	0.6873045999091119	1	0
166.86152970348485	0.8215016999747604	2	49	1562237.472	75	0.9579408999998122	2	0
167.6830314034596	0.8324521998874843	1	49	1562238.104	100	0.7683759999927133	1	0
168.5154836033471	0.8170438001397997	2	49	1562239.065	81.25	0.8971289999317378	2	0
169.3325274034869	0.8107914	2	49	1562240.003	68.75	1.0181818997953087	2	0
170.14331880328245	0.8258970000315458	2	49	1562240.785	75	0.9894696001429111	2	0
170.9692158	0.8376230001449585	2	49	1562241.433	93.75	0.8117069001309574	2	0
171.80683880345896	0.8155469000339508	2	49	1562242.413	75	0.9539420998189598	2	0
172.6223857034929	0.8236795999109745	2	49	1562243.305	68.75	1.0305000999942422	2	0
173.44606530340388	0.8154003999661654	2	49	1562243.995	81.25	0.8966987000312656	2	0
174.26146570337005	0.8270086001139134	2	49	1562244.793	87.5	0.8789828000590205	2	0
175.08847430348396	0.8204652999993414	2	49	1562245.476	93.75	0.7355927999597043	1	0
175.9089396034833	0.8129824998322874	2	49	1562246.26	93.75	0.6992529998533428	1	0
176.7219221033156	0.8138840000610799	2	49	1562247.1	93.75	0.7259978000074625	1	0
177.53580610337667	0.8202812999952585	2	49	1562247.887	93.75	0.6994553001131862	1	0
178.35608740337193	0.8177783999126405	2	49	1562248.761	100	0.7528796999249607	1	0
179.17386580328457	0.8170773000456393	2	49	1562249.534	93.75	0.7079994000960141	1	0
179.9909431033302	0.8111157000530511	2	49	1562250.303	87.5	0.6602084001060575	1	0
180.80205880338326	0.8134169999975711	2	49	1562251.103	87.5	0.6485417000949383	1	0
181.61547580338083	0.8153107000980526	2	49	1562252.068	93.75	0.8005707000847906	2	0
182.43078650347888	0.8211366999894381	2	49	1562252.847	100	0.7636517998762429	1	0
183.25192320346832	0.8171506	1	0	0	0	0	0	0
184.06907380349003	0.8140912000089884	2	49	1562254.571	87.5	0.8499044	2	0
184.88316500349902	0.8113111997954547	2	49	1562255.602	62.5	1.0671278999652714	2	0
185.69447620329447	0.8227794000413269	2	49	1562256.287	81.25	0.9406757	2	0
186.5172556033358	0.8165490000974387	2	49	1562256.931	100	0.7620648	1	0
187.33380460343324	0.8099486	2	49	1562257.778	93.75	0.7916289998684078	2	0
188.14375320333056	0.8105748000089079	2	49	1562258.528	100	0.7324203001335263	1	0
188.95432800333947	0.8138615000061691	2	49	1562259.31	93.75	0.7037613000720739	1	0
189.76818950334564	0.8142486999277025	2	49	1562260.238	93.75	0.8181022	2	0
190.58243820327334	0.8209072002209723	2	49	1562261.114	87.5	0.8789116002153605	2	0
191.4033454034943	0.8172538999933749	2	49	1562262.143	62.5	1.087289699818939	2	0
192.2205993034877	0.8162941997870803	2	49	1562262.679	93.75	0.8060992998071015	2	0
193.03689350327477	0.8156962001230568	1	0	0	0	0	0	0
193.85258970339783	0.8155491000507027	2	49	1562264.248	100	0.7428363999351859	1	0
194.66813880344853	0.8180761998519301	2	49	1562265.093	100	0.7722618000116199	1	0
195.48621500330046	0.8257318001706153	2	49	1562265.956	93.75	0.8176602001767606	2	0
196.31194680347107	0.8012008999940008	1	49	1562266.843	81.25	0.8785696998238564	2	0
197.11314770346507	0.8167024999856949	1	0	0	0	0	0	0
197.92985020345077	0.8202292998321354	2	49	1562268.167	75	0.5847442999947816	1	0
198.7500795032829	0.8247725002001971	2	49	1562269.108	93.75	0.7057427000254393	1	0
199.5748520034831	0.8195396999362856	2	49	1562269.968	100	0.7408022	1	0
200.3943917034194	0.8112202999182045	2	49	1562270.74	93.75	0.6938002000097185	1	0
201.2056120033376	0.8200583001598716	2	49	1562271.541	87.5	0.6835640000645071	1	0
202.02567030349746	0.8155133998952806	2	49	1562272.402	93.75	0.7236696	1	0
202.84118370339274	0.8185574999079108	1	0	0	0	0	0	0
203.65974120330065	0.8179942001588643	2	49	1562274.384	62.5	1.0724329000804573	2	0
204.47773540345952	0.8249432998709381	2	49	1562274.859	93.75	0.7292392000090331	1	0
205.30267870333046	0.8260393000673503	2	49	1562275.632	87.5	0.6770832	1	0
206.1287180033978	0.8125114999711514	2	49	1562276.672	81.25	0.8911299998871982	2	0
206.94122950336896	0.8162986000534147	2	49	1562277.437	87.5	0.8438780000433326	2	0
207.75752810342237	0.8189944999758154	2	49	1562278.231	93.75	0.8214459	2	0
208.5765226033982	0.8148479000665247	2	49	1562279.152	81.25	0.9234617000911385	2	0
209.3913705034647	0.8281715	2	49	1562280.042	75	0.9979973998852074	2	0
210.21954200346954	0.8212105999700725	2	49	1562280.827	75	0.9554800998885185	2	0
211.0407526034396	0.8166661	2	49	1562281.572	87.5	0.8786094998940825	2	0
211.85741870338097	0.8171252999454737	2	49	1562282.355	87.5	0.8455781999509782	2	0
212.67454400332645	0.8121462999843061	2	49	1562283.537	43.75	1.2104799000080675	2	0
213.48669030331075	0.8177041001617908	1	0	0	0	0	0	0
214.30439440347254	0.8236439998727292	2	49	1562284.835	87.5	0.8787802997976542	2	0
215.12803840334527	0.8163616999518126	2	49	1562285.856	62.5	1.076213400112465	2	0
215.94440010329708	0.8159760001581162	2	49	1562286.452	87.5	0.8555434001609683	2	0
216.7603761034552	0.8185310999397188	2	49	1562287.252	87.5	0.8397253998555243	2	0
217.57890720339492	0.8113724999129772	2	49	1562287.949	93.75	0.7183928000740707	1	0
218.3902797033079	0.8173243	1	0	0	0	0	0	0
219.20760400337167	0.8166316000279039	2	49	1562289.731	87.5	0.8707409000489861	2	0
220.02423560339957	0.8180305999703705	1	0	0	0	0	0	0
220.84226620336995	0.8181966000702232	2	49	1562291.116	81.25	0.6218723000492901	1	0
221.66046280344017	0.8194766999222338	2	49	1562291.905	81.25	0.5927711999975145	1	0
222.4799395033624	0.8105109999887645	2	49	1562292.965	87.5	0.8333785999566317	2	0
223.29045050335117	0.8212303000036627	2	49	1562293.707	100	0.7642377000302076	1	0
224.11168080335483	0.8284958000294864	2	49	1562294.593	93.75	0.8296376999933273	2	0
224.94017660338432	0.8221805999055505	2	49	1562295.284	93.75	0.6912497999146581	1	0
225.76235720328987	0.8164461001288146	2	49	1562296.143	93.75	0.7279914000537246	1	0
226.57880330341868	0.8105681999586523	2	49	1562296.97	100	0.7386775000486523	1	0
227.38937150337733	0.8191557000391185	2	49	1562297.799	100	0.7575489000882953	1	0
228.20852720341645	0.8201655999291688	2	49	1562298.564	93.75	0.7029967000707984	1	0
229.02869280334562	0.8156425000634044	1	0	0	0	0	0	0
229.84433530340903	0.8122864000033587	2	49	1562299.992	68.75	0.4952549000736326	1	0
230.65662170341238	0.8176032998599112	2	49	1562300.733	56.25	0.4240643000230193	1	0
231.4742250032723	0.8180919	2	49	1562301.741	81.25	0.6146257	1	0
232.2923169033602	0.8233817000873387	2	49	1562302.687	100	0.7421955	1	0
233.11569860344753	0.8267017998732626	2	49	1562303.567	93.75	0.7990832000505179	2	0
233.9424004033208	0.8170726001262665	2	49	1562304.38	93.75	0.7852696999907494	2	0
234.75947300344706	0.8167872000485659	2	49	1562305.223	93.75	0.8110563999507576	2	0
235.57626020349562	0.8170624	2	49	1562306.095	87.5	0.8668389997910708	2	0
236.3933226033114	0.8184422000776976	2	49	1562306.943	81.25	0.8974723999854177	2	0
237.2117648033891	0.8133043	2	49	1562307.732	87.5	0.8680352000519633	2	0
238.0250691033434	0.8156950999982655	2	49	1562308.631	75	0.9534899999853224	2	0
238.84076420334168	0.8157742000184953	1	0	0	0	0	0	0
239.65653840336017	0.8191462000831962	2	49	1562310.056	100	0.7473063999786973	1	0
240.47568460344337	0.8128211000002921	2	49	1562310.934	93.75	0.8058567999396473	2	0
241.28850570344366	0.8145002999808639	2	49	1562311.715	100	0.7744902	1	0
242.10300600342453	0.8211687998846173	2	49	1562312.537	100	0.7818239000625908	1	0
242.92417480330914	0.8154100000392646	2	49	1562313.289	93.75	0.7128763999789953	1	0
243.7395848033484	0.8191851	2	49	1562314.229	93.75	0.8374924000818282	2	0
244.55876990337856	0.8255465000402182	2	49	1562315.094	87.5	0.8833270999602973	2	0
245.38431640341878	0.8124667999800295	2	49	1562315.924	87.5	0.8877166998572648	2	0
246.1967832033988	0.8184605001006275	2	49	1562316.648	93.75	0.7993282000534236	2	0
247.01524370349944	0.8188584998715669	2	49	1562317.49	93.75	0.8228006998542696	2	0
247.8341022	0.8206342000048608	2	49	1562318.354	87.5	0.8673263001255691	2	0
248.65473640337586	0.8178777999710292	2	0	0	0	0	0	0
249.4726142033469	0.8199001	2	49	1562319.657	68.75	0.5322811999358237	1	0
250.2925143034663	0.8208188000135124	2	49	1562320.682	93.75	0.737149	1	0
251.11333310347982	0.8189602999482304	2	49	1562321.584	93.75	0.8188993998337537	2	0
251.93229340342805	0.8143757998477668	2	49	1562322.489	81.25	0.9044196999166161	2	0
252.74666920327581	0.8114601001143456	2	49	1562323.277	87.5	0.8785660001449287	2	0
253.55812930339016	0.8150686998851597	2	49	1562324.323	56.25	1.1128555000759661	2	0
254.37319800327532	0.8154961001127958	2	49	1562324.868	87.5	0.8430537001695484	2	0
255.18869410338812	0.8162167998962104	2	49	1562325.82	75	0.9787906	2	0
256.0049109032843	0.8175336001440883	1	0	0	0	0	0	0
256.8224445034284	0.8216552999801934	2	49	1562327.153	87.5	0.6782098000403494	1	0
257.6440998034086	0.8124372998718172	2	49	1562328.026	93.75	0.7293402999639511	1	0
258.4565371032804	0.8196684001013637	2	49	1562328.952	87.5	0.8436653001699597	2	0
259.2762055033818	0.8140157999005169	2	49	1562329.824	81.25	0.8954000999219716	2	0
260.0902213032823	0.8234119000844657	2	49	1562330.775	68.75	1.0322548002004623	2	0
260.91363320336677	0.8184807000216097	1	0	0	0	0	0	0
261.7321139033884	0.8160989999305457	2	49	1562332.167	100	0.7823838000185788	1	0
262.5482129033189	0.8108179999981076	2	49	1562333.016	93.75	0.8154995001386851	2	0
263.35903090331703	0.8128058000002056	2	49	1562333.836	93.75	0.8249314001295716	2	0
264.17183670331724	0.8119529001414776	2	49	1562334.795	75	0.9707949999719858	2	0
264.9837896034587	0.8129787	2	49	1562335.777	50	1.1409638000186533	2	0
265.7967683034949	0.8164928997866809	2	49	1562336.565	56.25	1.1160395999904722	2	0
266.6132612032816	0.8180243000388145	2	49	1562337.341	62.5	1.0756612000986934	2	0
267.4312855033204	0.8166187000460923	2	49	1562337.948	87.5	0.8644141000695527	2	0
268.2479042033665	0.8185195999685675	2	49	1562338.781	87.5	0.8813446001149714	2	0
269.06642380333506	0.8275236999616027	2	49	1562339.561	93.75	0.8419971000403166	2	0
269.89394750329666	0.8216151	2	49	1562340.26	93.75	0.7140440000221133	1	0
270.7155626034364	0.8167075000237674	1	0	0	0	0	0	0
271.5322701034602	0.8205432000104338	2	49	1562341.998	93.75	0.8136801000218838	2	0
272.3528133034706	0.8191474999766797	2	49	1562342.7	93.75	0.6951539998408407	1	0
273.1719608034473	0.8241717999335378	2	49	1562343.558	93.75	0.7339259998407215	1	0
273.99613260338083	0.8234536999370903	2	49	1562344.459	93.75	0.8111741000320762	2	0
274.8195863033179	0.8180228001438081	2	49	1562345.408	81.25	0.9362888999748975	2	0
275.6376091034617	0.8167244999203831	1	0	0	0	0	0	0
276.4543336033821	0.8217096000444144	2	49	1562346.715	81.25	0.6083843999076635	1	0
277.2760432034265	0.8136901999823749	2	49	1562347.559	81.25	0.6309681	1	0
278.0897334034089	0.8139188000932336	2	49	1562348.448	93.75	0.7061798998620361	1	0
278.90365220350213	0.8260963999200612	2	49	1562349.293	93.75	0.7368472998496145	1	0
279.7297486034222	0.8196060999762267	2	49	1562350.095	93.75	0.7133897999301553	1	0
280.5493547033984	0.8246881999075413	2	49	1562350.968	100	0.7669494000729173	1	0
281.37404290330596	0.8193535001482815	1	0	0	0	0	0	0
282.19339640345424	0.8132446999661624	2	49	1562352.742	81.25	0.8968173	2	0
283.0066411034204	0.8246766000520438	2	49	1562353.546	87.5	0.8872392000630498	2	0
283.83131770347245	0.8184684999287128	2	49	1562354.452	75	0.9682576998602599	2	0
284.64978620340116	0.8160055999178439	2	49	1562355.355	62.5	1.0531271998770535	2	0
285.4657918	0.8276863000355661	2	49	1562355.963	93.75	0.8455242000054568	2	0
286.2934781033546	0.8094115001149476	2	49	1562356.76	93.75	0.8138577	2	0
287.1028896034695	0.8155856998637319	2	49	1562357.508	100	0.7525327999610454	1	0
287.91847530333325	0.8172327000647783	1	49	1562358.287	93.75	0.7161433999426663	1	0
288.73570800339803	0.8098681000992656	2	49	1562359.245	87.5	0.8566970000974834	2	0
289.5455761034973	0.8137342999689281	1	0	0	0	0	0	0
290.3593104034662	0.8184096999466419	2	49	1562360.703	93.75	0.6910964	1	0
291.17772010341287	0.8162259000819176	2	49	1562361.526	93.75	0.6957743000239134	1	0
291.9939460034948	0.8193126998376101	2	49	1562362.371	93.75	0.7250079999212176	1	0
292.8132587033324	0.8225315001327544	2	49	1562363.2	93.75	0.7343975000549108	1	0
293.63579020346515	0.8154708000365645	2	49	1562364.244	75	0.9557586999144405	2	0
294.4512610035017	0.8247034999076277	1	0	0	0	0	0	0
295.27596450340934	0.8143676999025047	2	49	1562365.571	87.5	0.6426550000905991	1	0
296.09033220331185	0.8155853999778628	2	49	1562366.397	87.5	0.6543980001006275	1	0
296.9059176032897	0.8114874002058059	2	49	1562367.188	87.5	0.6298365001566708	1	0
297.7174050034955	0.8226055	2	49	1562368.251	87.5	0.8813151000067592	2	0
298.54001050349325	0.8397900999989361	1	49	1562369.142	81.25	0.9501133000012487	2	0
299.3798006034922	0.8407747999299318	1	0	0	0	0	0	0
300.2205754034221	0.8410002999007702	2	49	1562370.706	93.75	0.8331881000194699	2	0
301.0615757033229	0.8423256000969559	2	49	1562371.591	87.5	0.8771890001371503	2	0
301.90390130341984	0.8421678000595421	2	49	1562372.31	93.75	0.7538562999106944	1	0
302.7460691034794	0.8418680999893695	2	49	1562373.118	93.75	0.7196481998544186	1	0
303.58793720346875	0.8423809998203069	2	49	1562374.004	100	0.7639725999906659	1	0
304.43031820328906	0.8432980000507087	2	49	1562375.11	68.75	1.0276503001805395	2	0
305.27361620333977	0.8421124001033604	2	49	1562375.921	75	0.9953333	2	0
306.11572860344313	0.8415377999190241	2	49	1562376.474	87.5	0.7060848	1	0
306.95726640336215	0.8428404999431223	2	49	1562377.146	68.75	0.5360995000228286	1	0
307.8001069033053	0.8412602001335472	2	49	1562377.988	68.75	0.5359655001666397	1	0
308.6413671034388	0.8406823999248445	2	49	1562378.835	68.75	0.5417760999407619	1	0
309.48204950336367	0.8337308999616653	2	49	1562379.864	93.75	0.7302673000376672	1	0
310.31578040332533	0.8286121999844909	2	49	1562380.793	93.75	0.8250067001208663	2	0
311.1443926033098	0.8158394	2	49	1562381.577	100	0.7807639001403004	1	0
311.9602320033591	0.8120659000705928	1	49	1562382.286	87.5	0.6731666999403387	1	0
312.7722979034297	0.8198625000659376	2	49	1562383.247	93.75	0.8227278999984264	2	0
313.59216040349565	0.8133086	2	49	1562384.346	56.25	1.1013130999635905	2	0
314.4054690033663	0.8111215000972152	2	0	0	0	0	0	0
315.2165905034635	0.8203657998237759	2	49	1562385.467	81.25	0.5977435999084264	1	0
316.0369563032873	0.8185579001437873	2	49	1562386.518	93.75	0.8290419	2	0
316.8555142034311	0.8211435999255627	2	49	1562387.24	93.75	0.7328015000093728	1	0
317.67665780335665	0.8174477000720799	2	49	1562388.045	93.75	0.7157213	1	0
318.4941055034287	0.8220204999670386	1	49	1562388.855	93.75	0.7090481000486761	1	0
319.31612600339577	0.8195233999285847	2	49	1562389.897	87.5	0.9283463000319898	2	0
320.13564940332435	0.8296755000483245	2	49	1562390.639	87.5	0.8507116001565009	2	0
320.9653249033727	0.8174966999795288	2	49	1562391.512	81.25	0.8940293	2	0
321.7828216033522	0.8201381000690162	1	0	0	0	0	0	0
322.6029597034212	0.8284111998509616	2	49	1562393.105	87.5	0.8494891999289393	2	0
323.4313709032722	0.8177927	1	49	1562393.818	93.75	0.7342810002155602	1	0
324.2491636034101	0.8192648000549525	2	49	1562395.034	56.25	1.1330148000270128	2	0
325.0684284034651	0.8101873998530209	2	49	1562395.923	43.75	1.2025444000028074	2	0
325.8786158033181	0.8203586000017822	2	0	0	0	0	0	0
326.6989744033199	0.8227991999592632	2	49	1562396.808	62.5	0.4565030001103878	1	0
327.52177360327914	0.8249365000519902	2	49	1562397.69	68.75	0.5157219001557678	1	0
328.34671010333113	0.8115769000723958	1	49	1562398.575	75	0.5758873000741005	1	0
329.15828700340353	0.8087154000531882	2	49	1562399.562	100	0.7514206999912858	1	0
329.9670024034567	0.8251700999680907	2	49	1562400.458	93.75	0.8392290999181569	2	0
330.7921725034248	0.8141480998601764	2	49	1562401.282	93.75	0.8375424998812377	2	0
331.6063206	0.8158759002108127	2	49	1562402.138	87.5	0.8795284000225365	2	0
332.4221965034958	0.8103500998113304	2	49	1562402.964	81.25	0.8893831998575479	2	0
333.2325466033071	0.8091842	2	49	1562403.745	87.5	0.8601604	2	0
334.04173080343753	0.8142768000252545	2	49	1562404.441	100	0.7468119	1	0
334.8560076034628	0.8201983999460936	2	49	1562405.29	100	0.7816463	1	0
335.6762060034089	0.8202295	2	49	1562406.146	93.75	0.8172808000817895	2	0
336.49643550347537	0.8173855	2	49	1562407.054	81.25	0.9054315998218954	2	0
337.31382100330666	0.8111335001885891	2	49	1562407.881	81.25	0.9149140000808984	2	0
338.12495450349525	0.8251997998449951	2	49	1562408.695	81.25	0.9174418000038713	2	0
338.95015430334024	0.8237302999477834	1	0	0	0	0	0	0
339.7738846	0.8197589002083987	1	0	0	0	0	0	0
340.5936435034964	0.8206679997965693	2	49	1562410.861	81.25	0.6155541997868568	1	0
341.4143115	0.8255588000174612	2	49	1562411.848	100	0.7817995001096278	1	0
342.23987030331045	0.8131403001025319	2	49	1562412.92	68.75	1.0282886000350118	2	0
343.0530106	0.8176492999773473	1	0	0	0	0	0	0
343.87065990339033	0.8144443999044597	2	49	1562414.365	87.5	0.8423244000878185	2	0
344.6851043032948	0.8244096001144499	2	49	1562415.212	87.5	0.8742777002044022	2	0
345.50951390340924	0.8216033	2	49	1562416.069	81.25	0.9076350999530405	2	0
346.33111720345914	0.8137191999703646	2	49	1562416.831	87.5	0.8480547999497503	2	0
347.1448364034295	0.8131176000460982	2	49	1562417.907	56.25	1.1103641998488456	2	0
347.9579540034756	0.8104308999609202	1	0	0	0	0	0	0
348.7683849034365	0.8139181998558342	2	49	1562419.086	87.5	0.6657932999078184	1	0
349.58230310329236	0.8167080001439899	2	49	1562419.976	100	0.7416032000910491	1	0
350.39901110343635	0.8162412999663502	2	49	1562420.889	93.75	0.8382991	2	0
351.2152524034027	0.8155638999305665	2	49	1562421.752	87.5	0.8850467000156641	2	0
352.03081630333327	0.8167055000085384	2	49	1562422.634	75	0.9506447000894696	2	0
352.8475218033418	0.8160771001130342	2	49	1562423.27	100	0.7699071001261473	1	0
353.66359890345484	0.8145413999445736	2	49	1562424.093	100	0.7768381999339908	1	0
354.4781403033994	0.8161297000478953	2	49	1562424.895	100	0.7643438999075443	1	0
355.2942700034473	0.8158142999745905	2	49	1562425.719	100	0.7721452000550926	1	0
356.1100843034219	0.8208011998794973	2	49	1562426.574	93.75	0.8118203999474645	2	0
356.9308855033014	0.8154890001751482	2	49	1562427.344	100	0.7606244	1	0
357.74637450347655	0.8135174999479204	2	49	1562428.248	87.5	0.8494654	2	0
358.55989200342447	0.8137659998610616	2	49	1562429.119	81.25	0.9065892000216991	2	0
359.3736580032855	0.8274123000446707	2	49	1562429.941	81.25	0.9151885001920164	2	0
360.2010703033302	0.8142962	2	49	1562430.782	81.25	0.9286936	2	0
361.01536650327034	0.8125109001994133	2	49	1562431.5	93.75	0.8323872000910342	2	0
361.82787740346976	0.8266788998153061	2	49	1562432.251	100	0.7707648000214249	1	0
362.65455630328506	0.8094167001545429	2	49	1562432.993	93.75	0.6863214001059532	1	0
363.4639730034396	0.8183800999540836	2	49	1562433.833	93.75	0.7169977999292314	1	0
364.2823531033937	0.8182192998938262	2	49	1562434.66	93.75	0.7256346999201924	1	0
365.1005724032875	0.8154940002132207	1	49	1562435.283	68.75	0.5301085	1	0
365.91606640350074	0.8128153	2	49	1562436.015	62.5	0.4470969	1	0
366.72888170345686	0.8109525	2	49	1562436.719	50	0.3384076999500394	1	0
367.5398342034314	0.8127085999585688	2	49	1562437.489	43.75	0.2969678998924792	1	0
368.35254280338995	0.8371391999535263	2	49	1562438.449	56.25	0.4439139000605792	1	0
369.1896820033435	0.8154277000576258	2	49	1562439.315	62.5	0.4731149999424815	1	0
370.0051097034011	0.8207125999033451	2	49	1562440.15	68.75	0.4926201000344008	1	0
370.82582230330445	0.818462	2	49	1562440.896	56.25	0.41820670012384653	1	0
371.6442843033001	0.8197554000653327	2	49	1562441.734	62.5	0.4376392001286149	1	0
372.4640397033654	0.8084585000760853	2	49	1562442.593	62.5	0.4768336000852287	1	0
373.2724982034415	0.8233864000067115	2	49	1562443.455	68.75	0.5302686998620629	1	0
374.0958846034482	0.8149841998238117	2	49	1562444.659	81.25	0.9111116998828948	2	0
374.9108688	0.8200078001245856	2	49	1562445.529	75	0.9658492000307888	2	0
375.7308766033966	0.8236175999045372	2	49	1562446.196	93.75	0.8133475999347866	2	0
376.55449420330115	0.8068597000092268	2	49	1562446.994	93.75	0.7876766000408679	2	0
377.3613539033104	0.8125718999654055	2	49	1562447.778	100	0.7647174000740051	1	0
378.1739258032758	0.8136962000280619	2	49	1562448.568	100	0.7422154	1	0
378.98762200330384	0.8128681001253426	2	49	1562449.43	93.75	0.7905331	2	0
379.8004901034292	0.8184057	2	49	1562450.013	75	0.5598629000596702	1	0
380.61889580334537	0.8154233	1	49	1562450.909	87.5	0.6382842999882996	1	0
381.4343191033695	0.8128887999337167	1	49	1562451.792	93.75	0.7055603000335395	1	0
382.2472079033032	0.8293993000406772	2	49	1562452.857	81.25	0.9577984001953155	2	0
383.0766072033439	0.8201699999626726	2	49	1562453.679	75	0.949781	2	0
383.89677720330656	0.8140343001578003	2	49	1562454.437	87.5	0.8875929000787437	2	0
384.71081150346436	0.8158213	2	49	1562455.153	93.75	0.7904549	2	0
385.52663280349225	0.8102558	2	49	1562455.92	100	0.7408127000089735	1	0
386.33688860340044	0.8186872000806034	2	49	1562456.804	93.75	0.8146691999863833	2	0
387.15557580348104	0.8177017997950315	1	0	0	0	0	0	0
387.9732776032761	0.8201735001057386	2	49	1562458.338	93.75	0.7122807002160698	1	0
388.7934511033818	0.8209059000946581	2	49	1562459.202	100	0.7562776000704616	1	0
389.61435700347647	0.8123548999428749	2	49	1562460.059	93.75	0.7922274000011384	2	0
390.42671190341935	0.8143918998539448	2	49	1562461.035	75	0.9564135998953134	2	0
391.2411038032733	0.8196215000934899	2	49	1562461.828	81.25	0.9344678001943976	2	0
392.0607253033668	0.8117857999168336	2	49	1562462.646	81.25	0.9329508999362588	2	0
392.8725111032836	0.8241871001664549	2	49	1562463.52	75	0.9952424000948668	2	0
393.69669820345007	0.8133435000199825	2	49	1562464.331	75	0.9819495000410825	2	0
394.51004170347005	0.8255107	2	49	1562465.076	81.25	0.9135341998189688	2	0
395.3355524034705	0.8217837999109179	2	49	1562465.96	75	0.9725157998036593	2	0
396.1573362033814	0.82186	2	49	1562466.665	87.5	0.8558322999160737	2	0
396.9791962034069	0.8136245000641793	2	49	1562467.367	93.75	0.7355738999322057	1	0
397.7928207034711	0.8208613998722285	2	49	1562468.119	87.5	0.6740717999637127	1	0
398.6136821033433	0.8173861999530345	2	49	1562468.909	87.5	0.6431694000493735	1	0
399.43106830329634	0.8238350001629442	2	49	1562469.804	93.75	0.7207506999839097	1	0
400.2549033034593	0.8195209000259638	2	49	1562470.694	100	0.7870157998986542	1	0
401.07442420348525	0.8174510998651385	2	49	1562471.818	62.5	1.0916897999122739	2	0
401.8918753033504	0.8116552	2	49	1562472.411	87.5	0.8674379999283701	2	0
402.7035305034369	0.8250796999782324	1	49	1562473.062	93.75	0.7062816999386996	1	0
403.52861020341516	0.8201242000795901	2	49	1562474.184	68.75	1.003648400073871	2	0
404.34873440349475	0.8197247998323292	2	49	1562474.878	87.5	0.8773627998307347	2	0
405.1684592033271	0.8233751	2	49	1562475.918	62.5	1.0975605000276119	2	0
405.99183430336416	0.8122239999938756	2	49	1562476.496	87.5	0.8521589001175016	2	0
406.80405830335803	0.8151134001091123	1	0	0	0	0	0	0
407.61917170346715	0.8118151999078691	2	49	1562478.095	93.75	0.8239814999978989	2	0
408.4309869	0.8102834	2	49	1562478.811	100	0.7283153000753373	1	0
409.24127030349337	0.8129321997985244	2	49	1562479.712	93.75	0.8183067	2	0
410.0542025032919	0.8231421001255512	2	49	1562480.629	81.25	0.9224220002070069	2	0
410.87734460341744	0.8198011999484152	2	49	1562481.52	75	0.9908896000124514	2	0
411.69714580336586	0.8147174001205713	1	49	1562482.205	87.5	0.8557114999275655	2	0
412.5118632034864	0.8219022999983281	1	0	0	0	0	0	0
413.33376550348476	0.8285107999108732	2	49	1562483.621	81.25	0.6353858998045325	1	0
414.16227630339563	0.8148010999429971	1	49	1562484.427	81.25	0.6123355999588966	1	0
414.9770774033386	0.8192722999956459	2	49	1562485.599	75	0.9697465000208467	2	0
415.7963497033343	0.8172206000890583	2	49	1562486.315	87.5	0.8664422000292689	2	0
416.61357030342333	0.8202547999098897	2	49	1562486.974	93.75	0.7084492999128997	1	0
417.4338251033332	0.8189364	1	49	1562487.614	68.75	0.5284073001239449	1	0
418.2527615034487	0.8206058999057859	2	49	1562488.948	62.5	1.0429406999610364	2	0
419.0733674033545	0.8154106000438333	1	0	0	0	0	0	0
419.88877800339833	0.8163276000414044	1	49	1562490.236	93.75	0.6947311998810619	1	0
420.70510560343973	0.8148534998763353	2	49	1562491.373	68.75	1.0153832000214607	2	0
421.51995910331607	0.8244320000521839	2	49	1562492.195	68.75	1.0225717001594603	2	0
422.34439110336825	0.8149846000596881	2	49	1562493.042	68.75	1.0451074000447989	2	0
423.15937570342794	0.8192240998614579	2	49	1562493.645	93.75	0.8333339998498559	2	0
423.9785998032894	0.8181596000213176	2	49	1562494.478	87.5	0.8475881000049412	2	0
424.7967594033107	0.8146377999801189	2	49	1562495.419	75	0.9700790999922901	2	0
425.61139720329084	0.8068245002068579	2	49	1562495.99	93.75	0.7263149002101272	1	0
426.4182217034977	0.8121615999843925	2	49	1562496.911	87.5	0.8405285999178886	2	0
427.2303833034821	0.8188854998443276	2	49	1562497.711	93.75	0.8284906998742372	2	0
428.0492688033264	0.8177422001026571	2	49	1562498.493	100	0.7915499999653548	1	0
428.86701100342907	0.8116276	1	49	1562499.431	81.25	0.9117203999776393	2	0
429.67863860330544	0.8194150000344962	2	49	1562500.548	43.75	1.2171281999908388	2	0
430.49805360333994	0.8177301	2	49	1562501.065	81.25	0.9150648000650108	2	0
431.3157837034669	0.8152519	2	49	1562501.728	100	0.7601612999569625	1	0
432.1310356	0.8146999999880791	2	49	1562502.171	56.25	0.38787310011684895	1	0
432.9457356033381	0.8181311001535505	2	49	1562503.003	56.25	0.4047400001436472	1	0
433.76386670349166	0.8132775998674333	2	49	1562503.905	68.75	0.48917079996317625	1	0
434.5771443033591	0.8143033999949694	2	49	1562504.884	87.5	0.6548427999950945	1	0
435.39144770335406	0.8110551999416202	2	49	1562505.594	75	0.5500143999233842	1	0
436.2025029032957	0.8187653000932187	2	49	1562506.387	75	0.532492	1	0
437.0212682033889	0.8213064	2	49	1562507.199	68.75	0.5251350998878479	1	0
437.84257460338995	0.8127194999251515	2	49	1562508.103	81.25	0.6085598999634385	1	0
438.6552941033151	0.8157602001447231	2	49	1562509.07	100	0.7625853000208735	1	0
439.4710543034598	0.8142954998183995	2	49	1562509.755	81.25	0.6320211999118328	1	0
440.2853498032782	0.8244043001905084	2	49	1562510.723	100	0.7856544000096619	1	0
441.10975410346873	0.8136763998772949	2	49	1562511.556	93.75	0.7945085999090225	2	0
441.9234305	0.8089775000698864	2	49	1562512.415	87.5	0.8397755001205951	2	0
442.7324080034159	0.8183422000147402	2	49	1562513.286	81.25	0.9018268000800163	2	0
443.55075020343065	0.8171736998483539	2	49	1562514.113	81.25	0.9104903999250382	2	0
444.3679239	0.8167230000253767	2	49	1562514.935	81.25	0.9152342001907527	2	0
445.1846469033044	0.8114730000961572	2	49	1562515.728	81.25	0.8916830001398921	2	0
445.99611990340054	0.8111620999407023	2	49	1562516.578	81.25	0.9295954999979585	2	0
446.80728200334124	0.8127799001522362	2	49	1562517.356	81.25	0.8961549999658018	2	0
447.6200619034935	0.8229325998108834	2	49	1562518.141	87.5	0.8682728998828679	2	0
448.44299450330436	0.8193859001621604	2	49	1562519.032	81.25	0.9373242000583559	2	0
449.2623804034665	0.8186680998187512	2	49	1562519.953	68.75	1.038242699811235	2	0
450.0810485032853	0.8183057000860572	2	49	1562520.582	87.5	0.8484378000721335	2	0
450.89935420337133	0.8126159999519587	2	49	1562521.265	93.75	0.7130885999649763	1	0
451.7119702033233	0.8217809000052512	2	49	1562522.036	87.5	0.6717777	1	0
452.53375110332854	0.8155257999897003	2	49	1562522.987	93.75	0.8015448001679033	2	0
453.34927690331824	0.8165847000200301	2	49	1562523.689	87.5	0.6878665001131594	1	0
454.16586160333827	0.8257395001128316	2	49	1562524.537	93.75	0.7185480000916868	1	0
454.9916011034511	0.8114245999604464	2	49	1562525.418	100	0.7740352000109851	1	0
455.80302570341155	0.8182031000033021	2	49	1562526.129	87.5	0.6736731000710279	1	0
456.62122880341485	0.8116915998980403	1	49	1562527.019	100	0.7455112000461668	1	0
457.4329204033129	0.8139286001678556	2	49	1562528.038	75	0.9531695	2	0
458.24684900348075	0.8174901998136193	2	49	1562528.826	81.25	0.9268512	2	0
459.06433920329437	0.8185317001771182	2	49	1562529.674	75	0.9574806001037359	2	0
459.8828709034715	0.8137653998564929	1	0	0	0	0	0	0
460.6966363	0.8169953001197428	2	49	1562530.913	75	0.5641931	1	0
461.5136316034477	0.8098676	2	49	1562531.737	75	0.5711407999042422	1	0
462.32349920342676	0.8152061998844147	2	49	1562532.715	100	0.7395899998955429	1	0
463.1387054033112	0.8145978001412004	2	49	1562533.631	87.5	0.8401043000631034	2	0
463.9533032034524	0.8165374998934567	2	49	1562534.381	100	0.7758841998875141	1	0
464.76984070334584	0.8186129999812692	2	49	1562535.021	81.25	0.5992429000325501	1	0
465.5884537033271	0.8250325000844896	2	49	1562535.874	81.25	0.6334401001222432	1	0
466.4134862034116	0.8137971	2	49	1562536.794	93.75	0.7284828000701964	1	0
467.22728330339305	0.8146287000272423	2	49	1562537.677	93.75	0.7971129000652581	2	0
468.0419120034203	0.8190884999930859	2	49	1562538.336	87.5	0.6417755999136716	1	0
468.8610005034134	0.8141294999513775	2	49	1562539.319	93.75	0.8054031	2	0
469.67513000336476	0.8216282001230866	2	49	1562540.065	93.75	0.7379751	1	0
470.49675820348784	0.8157935999333858	2	49	1562541.073	81.25	0.9244419999886304	2	0
471.31255180342123	0.8228299000766128	1	0	0	0	0	0	0
472.13538170349784	0.8191186999902129	2	49	1562542.551	100	0.7638915998395532	1	0
472.95450040348805	0.8104558999184519	2	49	1562543.402	93.75	0.7952918999362737	2	0
473.7649563034065	0.8117726999334991	2	49	1562544.229	93.75	0.8123502000235021	2	0
474.576729	0.8150454999413341	1	49	1562545.178	75	0.9494913001544774	2	0
475.39177450328134	0.8117722000461072	2	49	1562546.33	37.5	1.2858283000532538	2	0
476.20354670332745	0.8139562	2	49	1562546.844	75	0.9887324	2	0
477.01750290347263	0.8129512998275459	2	49	1562547.647	75	0.9769040998071432	2	0
477.8304542033002	0.8165377001278102	2	49	1562548.474	75	0.9918341999873519	2	0
478.6469919	0.8118413998745382	1	49	1562549.066	100	0.7672144998796284	1	0
479.4588333033025	0.8138483001384884	2	49	1562549.973	87.5	0.8618754001799971	2	0
480.2726816	0.8165422999300063	1	0	0	0	0	0	0
481.0892239	0.8135405001230538	2	49	1562551.621	87.5	0.8791495	2	0
481.9027644034941	0.8221022998914123	2	49	1562552.367	93.75	0.8120908997952938	2	0
482.7248667033855	0.8197663000319153	2	49	1562553.158	100	0.7806955000851303	1	0
483.5446330034174	0.8126657	2	49	1562554.048	87.5	0.8511006999760866	2	0
484.35729870339856	0.8308351999148726	2	49	1562554.824	93.75	0.8141854999121279	2	0
485.1881339033134	0.8297649000305682	2	49	1562555.703	87.5	0.8630630001425743	2	0
486.0178988	0.8172611999325454	2	49	1562556.662	68.75	0.9916135999374092	2	0
486.83516000327654	0.8199972	2	49	1562557.404	81.25	0.9168947001453489	2	0
487.6551572033204	0.8167777000926435	1	49	1562557.976	87.5	0.6685896	1	0
488.47193490341306	0.8251549	2	49	1562559.22	62.5	1.0963596000801772	2	0
489.29708980349824	0.8141087	2	49	1562559.822	87.5	0.8729931998532265	2	0
490.11119850329123	0.8233151000458747	2	49	1562560.355	81.25	0.5914594000205398	1	0
490.9345136033371	0.8299821999389678	2	49	1562561.382	100	0.7952781000640243	1	0
491.7644958032761	0.8292542002163827	2	49	1562562.315	87.5	0.8981376001611352	2	0
492.59375000349246	0.8191257999278605	2	49	1562563.19	81.25	0.9438945997972041	2	0
493.4128758034203	0.8165444	2	49	1562563.918	87.5	0.8529642999637872	2	0
494.22942020348273	0.8105748000089079	2	49	1562564.66	100	0.7786501999944448	1	0
495.03999500349164	0.819335	2	49	1562565.483	100	0.7908359998837113	1	0
495.85933000338264	0.8122974999714643	2	49	1562566.366	87.5	0.8545045999344438	2	0
496.6716275033541	0.8166835999581963	2	49	1562567.108	100	0.7844887000974268	1	0
497.4883111033123	0.8183632001746446	2	49	1562567.922	100	0.7816952001303434	1	0
498.30667430348694	0.8105291998945177	1	0	0	0	0	0	0
499.11720350338146	0.8108192	2	49	1562569.734	75	0.9650649	2	0
499.9280227033887	0.8237757999449968	2	49	1562570.777	50	1.1971817000303417	2	0
500.7517985033337	0.8082836	2	49	1562571.045	87.5	0.6407904	1	0
501.5600821033586	0.8148863001260906	1	0	0	0	0	0	0
502.3749684034847	0.8199995	2	49	1562572.911	87.5	0.8843193999491632	2	0
503.19496790342964	0.8144266000017524	2	49	1562573.845	68.75	0.9973764000460505	2	0
504.0093945034314	0.8209700000006706	2	49	1562574.533	87.5	0.8712382	2	0
504.83036450343207	0.8215454998426139	2	49	1562575.278	93.75	0.7952759000472724	2	0
505.6519100032747	0.8159855999983847	2	49	1562576.001	93.75	0.6969609002117068	1	0
506.46789560327306	0.8137489000800997	2	49	1562576.844	93.75	0.7239642001222819	1	0
507.28164450335316	0.8246532001066953	2	49	1562577.613	87.5	0.6793108999263495	1	0
508.10629770345986	0.8136299999896437	2	49	1562578.525	100	0.7660665998701006	1	0
508.9199277034495	0.8117076000198722	2	49	1562579.298	93.75	0.7261550000403076	1	0
509.7316353034694	0.8124575999099761	2	49	1562580.095	93.75	0.7107530999928713	1	0
510.54409290337935	n/a	0	0	0	0	0	0	0