onset	duration	cue	constant1	timestamp	stimulus_coherence	response_time	response	constant2
28.69385278801201	0.8035556999966502	2	49	515242.3727	25	1.4148441999568604	2	0
29.49740848800866	0.8708100999938324	2	49	515242.8718	62.5	1.1104206999880262	2	0
30.36821858800249	0.7987785000004806	2	49	515243.4201	93.75	0.7878565000137314	2	0
31.166997088002972	0.7985214000218548	2	49	515243.9936	75	0.5626382000045851	1	0
31.965518488024827	0.8010423999512568	2	49	515245.2021	75	0.9725537999765947	2	0
32.766560887976084	0.8100146999931894	1	49	515245.7427	93.75	0.7120953000267036	1	0
33.57657558796927	0.8076850000070408	2	49	515246.5636	93.75	0.7230251000146382	1	0
34.384260587976314	0.7962031000060961	2	49	515247.1225	68.75	0.4741785	1	0
35.18046368798241	0.8010247999918647	2	49	515247.8787	62.5	0.43417580000823364	1	0
35.981488487974275	0.8015669000451453	2	49	515248.6592	56.25	0.4136708000442013	1	0
36.78305538801942	0.7993852999643423	2	49	515249.5839	75	0.5367857999517582	1	0
37.58244068798376	0.8011790000018664	2	49	515250.6307	93.75	0.7842509000329301	2	0
38.38361968798563	0.8011817000224255	2	49	515251.4529	93.75	0.8052492000279017	2	0
39.184801388008054	0.8087211999809369	2	49	515252.4712	68.75	1.0224165999679826	2	0
39.99352258798899	0.8020982000161894	2	49	515253.2588	68.75	1.0012914999970235	2	0
40.79562078800518	0.8046897000167519	1	49	515254.132	62.5	1.072330900002271	2	0
41.60031048802193	0.8025708999484777	2	49	515254.9707	56.25	1.1063998999889009	2	0
42.40288138797041	0.8095432000118308	2	49	515255.849	43.75	1.1821167000452988	2	0
43.21242458798224	0.7982184000429697	2	49	515256.6374	50	1.1609924000222236	2	0
44.01064298802521	0.7967215999960899	2	49	515257.476	43.75	1.201362199964933	2	0
44.80736459	0.8017875999794342	1	0	0	0	0	0	0
45.609152188000735	0.8096621999866329	2	49	515258.5492	87.5	0.6760689999791794	1	0
46.41881438798737	0.7981623000232503	2	49	515259.3769	93.75	0.6940761000150815	1	0
47.21697668801062	0.8037404000060633	2	49	515260.3241	87.5	0.8431098999571986	2	0
48.02071708801668	0.8018555999733508	1	49	515261.1623	81.25	0.8775368999922648	2	0
48.82257268799003	0.7976948	2	49	515262.161	56.25	1.074396300013177	2	0
49.620267488004174	0.7976114000193775	2	49	515263.018	50	1.1337196999811567	2	0
50.41787888802355	0.7992941999691539	2	0	0	0	0	0	0
51.217173087992705	0.8141813999973238	2	49	515263.9611	62.5	0.4799312999821268	1	0
52.03135448799003	0.8006797999842092	2	49	515264.8671	75	0.5717596000176854	1	0
52.83203428797424	0.7994367000064813	2	49	515265.7151	81.25	0.6190560000250116	1	0
53.63147098798072	0.8011745000258088	1	0	0	0	0	0	0
54.43264548800653	0.8028054999886081	2	49	515267.4415	100	0.7447944000014104	1	0
55.23545098799514	0.8033996000303887	2	49	515268.4075	81.25	0.9079989999881946	2	0
56.038850588025525	0.8013976999791339	1	0	0	0	0	0	0
56.84024828800466	0.8095505000092089	2	49	515269.5932	68.75	0.4889452999923378	1	0
57.64979878801387	0.8011325999977998	2	49	515270.7647	87.5	0.8508499999879859	2	0
58.45093138801167	0.8007762999623083	2	49	515271.6795	75	0.9645680999965407	2	0
59.251707687973976	0.8090729000396095	2	49	515272.7005	50	1.1847587000229396	2	0
60.060780588013586	0.8080369000090286	2	49	515273.5535	43.75	1.228722799976822	2	0
60.868817488022614	0.7992871999740601	2	0	0	0	0	0	0
61.668104687996674	0.8002590999822132	2	49	515274.4534	68.75	0.5213156000245363	1	0
62.46836378797889	0.8032	2	49	515275.5917	87.5	0.8593025000300258	2	0
63.27156378800282	0.8002837999956682	1	0	0	0	0	0	0
64.07184758799849	0.8059990999754518	2	49	515277.1567	93.75	0.8208746999735013	2	0
64.87784668797394	0.7985370000242256	2	49	515278.0556	81.25	0.9137235000380315	2	0
65.67638368799817	0.7984466999769211	2	49	515278.9324	68.75	0.9920330999884754	2	0
66.47483038797509	0.7973867999971844	1	0	0	0	0	0	0
67.27221718797227	0.8014308999991044	2	49	515279.9799	62.5	0.44366380001883954	1	0
68.07364808797138	0.8044104000437073	2	49	515280.8773	75	0.5395998	1	0
68.87805848801509	0.7969554	1	49	515281.8369	93.75	0.6948674999875948	1	0
69.67501389	0.7962330000009388	2	49	515282.828	81.25	0.8890155000262894	2	0
70.47124688798795	0.8038889	2	49	515283.6828	75	0.9475408000289463	2	0
71.27513578801882	0.7965701999492012	2	0	0	0	0	0	0
72.07170598796802	0.8018431000527926	2	49	515284.8335	68.75	0.4978166000219062	1	0
72.87354908802081	0.8008927999762818	2	49	515285.7763	87.5	0.6386925999540836	1	0
73.67444188799709	0.8062006999971345	2	49	515286.8489	81.25	0.9103960000211373	2	0
74.48064258799423	0.7981177999754436	1	0	0	0	0	0	0
75.27876038796967	0.7982007000246085	2	49	515288.3438	93.75	0.8009854000410996	2	0
76.07696108799428	0.7998006999841891	2	49	515289.2038	87.5	0.8628670999896713	2	0
76.87676178797847	0.8170724000083283	2	49	515290.129	68.75	0.9882534	2	0
77.69383419	0.8005020000273362	2	49	515291.0698	56.25	1.1119851000257768	2	0
78.49433618801413	0.8078322999645025	2	0	0	0	0	0	0
79.30216848797863	0.8014598000445403	2	49	515292.1219	75	0.5556722999899648	1	0
80.10362828802317	0.7980274999863468	2	49	515292.8931	75	0.5254456999828108	1	0
80.90165578800952	0.7998880000086501	2	49	515293.934	100	0.7683682999922894	1	0
81.70154378801817	0.8006193999899551	2	49	515294.908	75	0.9424394999514334	2	0
82.50216318800813	0.7972438000142574	1	0	0	0	0	0	0
83.29940698802238	0.8000913999858312	2	49	515296.1325	75	0.5691176	1	0
84.09949838800821	0.7996390999760479	2	49	515297.3822	68.75	1.0186520999995992	2	0
84.89913748798426	0.7979853000142612	2	49	515298.1592	68.75	0.9960576000157744	2	0
85.69712278799852	0.8052958999760449	1	49	515299.0182	62.5	1.0570552999852225	2	0
86.50241868797457	0.8011692000436597	2	0	0	0	0	0	0
87.30358788801823	0.7976558999507688	2	49	515300.1423	81.25	0.5746705000055954	1	0
88.10124379	0.7977193	2	49	515301.0745	93.75	0.709201	1	0
88.89896308799507	0.8121208000229672	2	49	515302.2775	56.25	1.1145333	2	0
89.71108388801804	0.8114938999642618	2	49	515303.2173	43.75	1.2422014999901876	2	0
90.52257779	0.8097314999904484	1	0	0	0	0	0	0
91.33230928797275	0.8010207	2	49	515304.4123	93.75	0.8159709	2	0
92.13332999	0.7977883000276051	2	49	515305.3513	75	0.9539065000135452	2	0
92.93111829	0.8022257999982685	1	0	0	0	0	0	0
93.73334408801747	0.8018377999542281	2	49	515306.3803	56.25	0.38296739995712414	1	0
94.53518189	0.8005338000366464	2	49	515307.3149	68.75	0.5156798000098206	1	0
95.33571568800835	0.7974179000011645	2	49	515308.3278	100	0.7280617000069469	1	0
96.13313358800951	0.8062657999689691	2	49	515309.3438	75	0.9466325999819674	2	0
96.93939938797848	0.7984125000075437	2	0	0	0	0	0	0
97.73781188798603	0.8013070999877527	2	49	515310.4535	62.5	0.45167909999145195	1	0
98.53911898797378	0.7992021000245586	1	49	515311.2558	62.5	0.45263600000180304	1	0
99.33832108799834	0.7997819000156596	2	49	515312.7565	50	1.1542122000246309	2	0
100.138103	0.7977160000009462	2	49	515313.6125	43.75	1.2104044999578036	2	0
100.93581898801494	0.8025686999899335	1	0	0	0	0	0	0
101.73838768800488	0.8066546	2	49	515314.6278	81.25	0.6254303000168875	1	0
102.54504228802398	0.8029984999448061	2	49	515315.4079	81.25	0.5988368999678642	1	0
103.34804078796878	0.7979010000126436	2	49	515316.3437	100	0.7316755000501871	1	0
104.14594178798143	0.8010813	2	49	515317.2609	87.5	0.8509732	2	0
104.94702308799606	0.8025531999883242	2	49	515318.1255	81.25	0.9144356999895535	2	0
105.74957628798438	0.7974681000341661	2	49	515319.1002	56.25	1.086657900013961	2	0
106.54704438801855	0.8000685999868438	2	0	0	0	0	0	0
107.34711298800539	0.7990498999715783	2	49	515320.3223	93.75	0.7111378000117838	1	0
108.14616288797697	0.7994071000139229	2	49	515321.403	68.75	0.9928138999966905	2	0
108.9455699879909	0.8021268000011332	2	49	515322.2103	68.75	1.000755199987907	2	0
109.74769678799203	0.7974922999856062	2	0	0	0	0	0	0
110.54518908797763	0.7974489000043832	2	49	515323.5	93.75	0.6907836000318639	1	0
111.34263798798202	0.8005987000069581	2	49	515324.546	75	0.9393891000072472	2	0
112.14323668798897	0.79684	2	49	515325.4084	68.75	1.0011355000315234	2	0
112.9400766880135	0.7972908	2	0	0	0	0	0	0
113.73736748797819	0.7979139999952167	2	49	515326.4982	68.75	0.49684860004344955	1	0
114.5352814879734	0.8017435000510886	2	49	515327.7241	81.25	0.9248440000228584	2	0
115.3370249880245	0.8000560999498703	2	49	515328.5991	68.75	0.9980909999576397	2	0
116.13708108797437	0.8019411000423133	2	0	0	0	0	0	0
116.93902218801668	0.7993073999532498	2	49	515329.6493	62.5	0.44625969999469817	1	0
117.73832958796993	0.7985046000103466	2	49	515330.5205	68.75	0.5181592000299133	1	0
118.53683418798028	0.7983306	2	49	515331.3341	75	0.5332800000323914	1	0
119.33516478800448	0.7974510000203736	2	49	515332.2883	93.75	0.6891429999959655	1	0
120.13261578802485	0.8012688999879174	2	49	515333.4208	68.75	1.0241661999607459	2	0
120.93388468801277	0.8118745000101626	2	49	515334.1835	68.75	0.9855714999721386	2	0
121.74575918802293	0.8036070999805816	2	49	515335.1185	56.25	1.1086771999835037	2	0
122.54936628800351	0.7989854000043124	2	0	0	0	0	0	0
123.34835168800782	0.8010394999873824	2	49	515336.1303	68.75	0.5179282000171952	1	0
124.1493911879952	0.8053879999788478	2	49	515337.1454	100	0.7320197999943048	1	0
124.95477918797405	0.8038145000464283	2	49	515338.0875	87.5	0.8686867000069469	2	0
125.75859368802048	0.7988229999900796	2	49	515339.0524	62.5	1.029799899959471	2	0
126.55741668801056	0.7980484999716282	2	0	0	0	0	0	0
127.35546518798219	0.8103977999999188	2	49	515340.1274	68.75	0.5079530000220984	1	0
128.1658629879821	0.7989562000147998	2	49	515341.1728	100	0.7429329000297002	1	0
128.9648191879969	0.8014883999712765	2	49	515342.1287	81.25	0.8999151000170968	2	0
129.76630758796819	0.8043215000070632	2	49	515343.1467	56.25	1.1163836000487208	2	0
130.57062908797525	0.7979735000408255	2	0	0	0	0	0	0
131.36860258801607	0.7986680999747477	2	49	515344.0911	62.5	0.4584482999634929	1	0
132.16727068799082	0.8032476999796927	2	49	515345.0519	81.25	0.6206645999918692	1	0
132.97051838797051	0.8021402000449598	1	49	515346.0367	93.75	0.8021333000506274	2	0
133.77265858801547	0.8021301999688148	2	49	515347.0631	62.5	1.0264226999715902	2	0
134.5747887879843	0.7996661000070162	2	49	515347.9875	50	1.1486797000397928	2	0
135.3744548879913	0.8016726999776438	2	0	0	0	0	0	0
136.17612758796895	0.8023416000069119	2	49	515349.147	93.75	0.7068251	1	0
136.97846918797586	0.8002813000348397	2	49	515350.0988	87.5	0.8563521000323817	2	0
137.7787504880107	0.7996594000142068	2	49	515351.1437	56.25	1.100941899989266	2	0
138.5784098880249	0.7975874	1	0	0	0	0	0	0
139.37599728797795	0.7984269000007771	2	0	0	0	0	0	0
140.17442418797873	0.8007668000063859	2	49	515353.052	81.25	0.6135791999986395	1	0
140.97519098798512	0.7986786999972537	2	49	515353.961	93.75	0.7217718	1	0
141.77386968798237	0.8040707	2	49	515354.9588	81.25	0.9209593000123277	2	0
142.57794038800057	0.797959	2	49	515355.9555	56.25	1.1135645000031218	2	0
143.3758993879892	0.8016314000124112	2	0	0	0	0	0	0
144.1775307880016	0.7977287	2	49	515356.9359	68.75	0.49439349997555837	1	0
144.97525948798284	0.8118107999907807	2	49	515357.8909	87.5	0.6516122000175528	1	0
145.78707028797362	0.8021127000101842	2	49	515358.8388	93.75	0.7876809000154026	2	0
146.5891829879838	0.8004691	2	49	515359.7613	81.25	0.9081215999904089	2	0
147.38965208799345	0.8003703000140376	2	49	515360.7281	62.5	1.0744753999751993	2	0
148.1900223880075	0.8031835000147112	1	0	0	0	0	0	0
148.9932058880222	0.7980251	2	49	515362.068	93.75	0.8108031000010669	2	0
149.79123098799028	0.8006018	2	49	515363.0715	68.75	1.0162745999987237	2	0
150.59183278802084	0.8064619999495335	2	49	515363.8845	62.5	1.0286605999572203	2	0
151.39829478797037	0.7973025000537746	2	49	515364.6699	68.75	1.0075583000434563	2	0
152.19559728802415	0.8005556999705732	2	49	515365.7987	25	1.339081099955365	2	0
152.99615298799472	0.7994577999925241	1	0	0	0	0	0	0
153.79561078798724	0.8059281000168994	2	49	515367.0618	68.75	1.0021301999804564	2	0
154.60153888800414	0.7958863999811001	2	49	515367.9993	50	1.133781899989117	2	0
155.39742528798524	0.7968509999918751	2	0	0	0	0	0	0
156.19427628797712	0.8007937000365928	2	49	515368.9314	62.5	0.47306560003198683	1	0
156.9950699880137	0.8027633999590762	2	49	515370.0884	87.5	0.8292859999928623	2	0
157.7978333879728	0.8018005000194535	2	49	515371.2654	43.75	1.2035433000419289	2	0
158.59963388799224	0.8032054000068456	2	0	0	0	0	0	0
159.4028392879991	0.7989651000243612	2	49	515372.1823	68.75	0.5154894000152126	1	0
160.20180438802345	0.8007523999549448	2	49	515373.3147	87.5	0.8489174999995157	2	0
161.0025567879784	0.7979520999942906	2	49	515374.2634	68.75	0.9968238000292331	2	0
161.80050888797268	0.8040557	2	49	515375.2237	50	1.1592256000149064	2	0
162.60456458799308	0.7980036999797449	2	0	0	0	0	0	0
163.40256828797283	0.7996191	2	49	515376.1916	75	0.5249766000197269	1	0
164.2021873879712	0.801411	2	49	515377.2275	100	0.7612883	1	0
165.0035983879934	0.7987561000045389	2	49	515378.1686	81.25	0.9009638000279665	2	0
165.80235448799795	0.7988205999718048	2	49	515379.1587	56.25	1.0923161000246182	2	0
166.60117508796975	0.8011063000303693	2	49	515380.0105	50	1.1453407000517473	2	0
167.40228138800012	0.8063306	2	49	515380.8456	50	1.1793362000025809	2	0
168.20861198799685	0.8028083000099286	1	0	0	0	0	0	0
169.01142028800678	0.7990233000018634	2	49	515381.7396	62.5	0.4642081999918446	1	0
169.81044358800864	0.7977419	2	49	515382.7038	87.5	0.6293087999802083	1	0
170.60818548797397	0.8022481999942102	2	49	515383.5958	100	0.7235533	1	0
171.41043368796818	0.8073755000368692	2	49	515384.6467	75	0.9722301000147127	2	0
172.21780918800505	0.7985787	2	49	515385.621	50	1.1392120000091381	2	0
173.01638788799755	0.7964139999821782	2	0	0	0	0	0	0
173.81280188797973	0.8003403000184335	2	49	515386.5281	62.5	0.4512929000193253	1	0
174.61314218799816	0.7966766000026837	1	0	0	0	0	0	0
175.40981878800085	0.7984375000232831	2	49	515388.0039	50	0.33006120001664385	1	0
176.20825628802413	0.7986444999696687	2	49	515388.9969	75	0.5246700999559835	1	0
177.0069007879938	0.7972007999778725	2	49	515389.716	62.5	0.4450698000146076	1	0
177.80410158797167	0.7993368	2	0	0	0	0	0	0
178.60343838797417	0.7995024000410922	1	49	515391.4952	87.5	0.6277436999953352	1	0
179.40294078801526	0.8029359999927692	2	49	515392.4191	100	0.7521669999696314	1	0
180.20587678800803	0.7997535999747925	2	49	515393.4129	75	0.9430382	2	0
181.00563038798282	0.7984037999995053	2	49	515394.1587	81.25	0.8890986000187695	2	0
181.80403418798232	0.7971601000172086	2	49	515394.9663	81.25	0.8982332000159658	2	0
182.60119428799953	0.7968331	2	49	515395.7866	81.25	0.9214307999936864	2	0
183.39802738797152	0.8011460000416264	2	49	515396.7812	56.25	1.1191794000333175	2	0
184.19917338801315	0.7963624999974854	1	0	0	0	0	0	0
184.99553588801064	0.8004709999659099	2	49	515398.0422	93.75	0.7826545999851078	2	0
185.79600688797655	0.7979504000395536	2	49	515399.0528	68.75	0.9927863000193611	2	0
186.5939572880161	0.7975895999697968	2	49	515400.0132	50	1.1551889999536797	2	0
187.3915468879859	0.805675	2	0	0	0	0	0	0
188.19722188799642	0.8079978000023402	2	49	515400.9008	62.5	0.43958020000718534	1	0
189.00521968799876	0.7999078999855556	1	49	515401.8516	81.25	0.5823974	1	0
189.80512758798432	0.8006102000363171	1	0	0	0	0	0	0
190.60573778802063	0.8004168999614194	2	49	515403.7315	87.5	0.8617114999797195	2	0
191.40615468798205	0.7973567000008188	2	49	515404.6009	75	0.9307673000148498	2	0
192.20351138798287	0.8012161999940872	2	49	515405.5358	62.5	1.0682845000410452	2	0
193.00472758797696	0.8020846000290476	2	49	515406.3914	56.25	1.1226187000283971	2	0
193.8068122	0.8040764	2	0	0	0	0	0	0
194.6108885880094	0.8022177999955602	2	49	515407.3026	62.5	0.4276815999764949	1	0
195.41310638800496	0.7964567000162788	2	49	515408.0967	56.25	0.41955439996672794	1	0
196.20956308802124	0.8009083999786526	2	49	515409.3778	81.25	0.9042431999696419	2	0
197.0104714879999	0.8011926999897696	2	49	515410.2878	68.75	1.013329099980183	2	0
197.81166418798966	0.8006864000344649	2	49	515411.2027	50	1.1269979000207968	2	0
198.61235058802413	0.8062856999458745	2	49	515412.2378	25	1.3614432999747805	2	0
199.4186363	0.7982557	1	0	0	0	0	0	0
200.21689198800595	0.7991767000057735	2	49	515413.3678	81.25	0.8869280999642797	2	0
201.01606868801173	0.8024619999923743	2	49	515414.3309	62.5	1.0508665000088513	2	0
201.8185306880041	0.8088496999698691	2	0	0	0	0	0	0
202.62738038797397	0.7960675000213087	2	49	515415.405	68.75	0.513589	1	0
203.42344788799528	0.8000241999980062	2	49	515416.5429	87.5	0.8554562000208534	2	0
204.2234720879933	0.7979308000067249	2	49	515417.471	68.75	0.9835001000319608	2	0
205.0214029	0.7993312000180595	2	49	515418.2907	68.75	1.0053142000106163	2	0
205.82073408801807	0.8010956999496557	1	0	0	0	0	0	0
206.62182978796773	0.8015294000506401	2	49	515419.7001	93.75	0.8143046000041068	2	0
207.42335918801837	0.8028966999845579	1	49	515420.618	75	0.9306552999769337	2	0
208.22625588800292	0.7968014000216499	2	49	515421.5799	56.25	1.0896305000060238	2	0
209.02305728802457	0.7996455999673344	2	0	0	0	0	0	0
209.8227028879919	0.7980637000291608	2	49	515422.6958	81.25	0.6091191000305116	1	0
210.62076658802107	0.7977630999521352	2	49	515423.6444	100	0.7595843999879435	1	0
211.4185296879732	0.8008730000001378	1	49	515424.7204	62.5	1.0378624000004493	2	0
212.21940268797334	0.8000022000051104	2	0	0	0	0	0	0
213.01940488797845	0.8000800000154413	2	49	515425.913	87.5	0.6296123000211082	1	0
213.8194848879939	0.8006351999938488	2	49	515427.0415	75	0.9579528999747708	2	0
214.62012008798774	0.8060927999904379	2	0	0	0	0	0	0
215.42621288797818	0.8033742000116035	2	49	515428.142	62.5	0.4517252999939956	1	0
216.22958708798978	0.7993051999947056	2	49	515428.9662	68.75	0.4726304999785498	1	0
217.0288922879845	0.8004847000120208	2	49	515429.9612	87.5	0.6683326000347733	1	0
217.8293769879965	0.7958172999788076	2	0	0	0	0	0	0
218.62519428797532	0.7962789	2	49	515431.5643	93.75	0.6750833000405692	1	0
219.42147318797652	0.8027387000038289	2	49	515432.563	87.5	0.8775495000299998	2	0
220.22421188798035	0.8073251000023447	2	49	515433.5412	62.5	1.0530175000312738	2	0
221.0315369879827	0.8024357000249438	2	49	515434.3634	62.5	1.067833100038115	2	0
221.83397268800763	0.8028468000120483	2	0	0	0	0	0	0
222.63681948801968	0.8061327000032179	2	49	515435.3746	62.5	0.47373079997487366	1	0
223.4429521880229	0.7991838000016287	2	49	515436.2743	75	0.5673115999670699	1	0
224.24213598802453	0.8010112999472767	2	49	515437.2628	100	0.7566914999624714	1	0
225.0431472879718	0.7985948999994434	2	49	515438.3463	62.5	1.0391690999967977	2	0
225.84174218797125	0.7984046000055969	2	49	515439.3141	43.75	1.2083280000369996	2	0
226.64014678797685	0.7988494000164792	2	0	0	0	0	0	0
227.43899618799333	0.7988560000085272	2	49	515440.2895	81.25	0.5864807000034489	1	0
228.23785218800185	0.8038074999931268	2	49	515441.1977	93.75	0.6957992999814451	1	0
229.04165968799498	0.8011870000045747	2	49	515442.1812	87.5	0.8755571999936365	2	0
229.84284668799955	0.7984478999860585	2	49	515443.129	62.5	1.0220897999824956	2	0
230.6412945879856	0.7985707999905571	2	0	0	0	0	0	0
231.43986538797617	0.7986618000431918	2	49	515444.1427	62.5	0.4387824000441469	1	0
232.23852718801936	0.8016659999848343	2	49	515445.1818	93.75	0.6792335999780335	1	0
233.0401931880042	0.7983446000143886	2	49	515446.3122	68.75	1.0079528000205755	2	0
233.83853778801858	0.7991169999586418	2	49	515447.312	43.75	1.209465799969621	2	0
234.63765478797723	0.8076239000074565	2	0	0	0	0	0	0
235.44527868798468	0.8013646000181325	1	49	515448.3407	87.5	0.6314546000212431	1	0
236.24664328800282	0.7973277000128292	2	0	0	0	0	0	0
237.04397098801564	0.8041797999758273	2	49	515450.0605	100	0.7524720999645069	1	0
237.84815078799147	0.7978962999768555	2	49	515451.1482	62.5	1.0360096999793313	2	0
238.64604708796833	0.7996734000043944	2	49	515452.0329	50	1.1228445	2	0
239.44572048797272	0.7980488000321202	2	0	0	0	0	0	0
240.24376928800484	0.8000492000137456	2	49	515453.03	75	0.5222521	1	0
241.0438184880186	0.8007155999657698	1	49	515454.2359	75	0.9280667999992147	2	0
241.84453408798436	0.8037289000349119	2	0	0	0	0	0	0
242.64826298801927	0.8014945999602787	1	49	515455.6902	93.75	0.7779256999492645	2	0
243.44975758797955	0.8006171000306495	1	0	0	0	0	0	0
244.2503746880102	0.7992617000127211	2	0	0	0	0	0	0
245.04963638802292	0.7974678999744356	2	49	515458.0774	100	0.7637099	1	0
245.84710428799735	0.7999875000095926	2	49	515459.1836	62.5	1.072466199984774	2	0
246.64709178800695	0.8098606999847107	1	0	0	0	0	0	0
247.45695248799166	0.7984970000106841	2	49	515460.513	93.75	0.7920349999913014	2	0
248.25544948800234	0.8014834999921732	2	49	515461.4936	68.75	0.9741424999665469	2	0
249.05693298799451	0.8002121999743395	2	0	0	0	0	0	0
249.85714518796885	0.8045424000010826	2	49	515462.7794	87.5	0.6582335000275634	1	0
250.66168758796994	0.7990804000291973	2	49	515463.8172	81.25	0.8914935000357218	2	0
251.46076798799913	0.8022773999837227	2	49	515464.8321	56.25	1.107333899999503	2	0
252.26304538798286	0.7974033000064082	2	0	0	0	0	0	0
253.06044868798926	0.8020815000054426	2	49	515465.7588	62.5	0.4343683000188321	1	0
253.8625301879947	0.8068033999879844	2	49	515466.7513	81.25	0.6247714000055566	1	0
254.6693335879827	0.8021401999867521	2	49	515467.7594	87.5	0.8260749999899417	2	0
255.47147378796944	0.8015696000074968	2	49	515468.76	68.75	1.0244917000527494	2	0
256.27304338797694	0.7981489000376314	2	49	515469.7554	43.75	1.2183508000453003	2	0
257.0711922880146	0.7993242	2	0	0	0	0	0	0
257.87051648797933	0.7963873000117019	2	49	515470.6165	68.75	0.4819246000261046	1	0
258.66690378799103	0.8018223000108264	1	49	515471.5525	81.25	0.6215884999837726	1	0
259.46872608800186	0.7979209999903105	2	0	0	0	0	0	0
260.26664708799217	0.7969557	2	49	515473.3283	93.75	0.7976847999962047	2	0
261.0636027880246	0.7979223000002094	1	49	515474.2467	81.25	0.9191022999584675	2	0
261.8615250880248	0.7976384999928996	2	0	0	0	0	0	0
262.6591635880177	0.7984281999524683	2	49	515475.7566	87.5	0.8334280999843031	2	0
263.45759178797016	0.8030316000222228	2	49	515476.7275	68.75	1.005904300021939	2	0
264.2606233879924	0.8005916000111029	2	49	515477.6017	56.25	1.077058000024408	2	0
265.0612149880035	0.7982519	2	0	0	0	0	0	0
265.8594668880105	0.8025859000044875	2	49	515478.6869	75	0.5633984999731183	1	0
266.6620528	0.8146222999785095	2	49	515479.8374	81.25	0.9113530999748036	2	0
267.4766750879935	0.8022232999792323	2	49	515480.7216	68.75	0.9808733999961987	2	0
268.27889838797273	0.8014819000381976	2	49	515481.6644	56.25	1.1215162000153214	2	0
269.08038028801093	0.7977382	2	0	0	0	0	0	0
269.8781184880063	0.7990283999824896	1	49	515482.7657	87.5	0.6235513999708928	1	0
270.6771468879888	0.7974967	2	0	0	0	0	0	0
271.4746435880079	0.7955174999660812	2	49	515484.599	87.5	0.8603085000067949	2	0
272.2701611	0.7981035000411794	2	49	515485.51	68.75	0.9758556000306271	2	0
273.06826458801515	0.7963699	2	49	515486.3642	62.5	1.031887699966319	2	0
273.8646344880108	0.7985735000111163	1	0	0	0	0	0	0
274.6632079880219	0.7983148999628611	1	0	0	0	0	0	0
275.46152288798476	0.7955988000030629	2	49	515488.751	62.5	1.0254623999935575	2	0
276.2571216879878	0.7957334999809973	2	49	515489.654	50	1.132874200004153	2	0
277.0528551879688	0.7964626000029966	2	0	0	0	0	0	0
277.8493177879718	0.7993993000127375	2	49	515490.7271	81.25	0.6138174000079744	1	0
278.64871708798455	0.798266	1	0	0	0	0	0	0
279.4469830879825	0.7998551999917254	2	49	515492.5739	87.5	0.8629445999977179	2	0
280.24683828797424	0.7968916000099853	2	49	515493.4693	75	0.9584453999996185	2	0
281.0437298879842	0.7981716000358574	2	49	515494.4971	43.75	1.1893247000407428	2	0
281.8419014880201	0.8028887999826111	2	0	0	0	0	0	0
282.6447902880027	0.8020058000111021	2	49	515495.7829	87.5	0.8740674000000581	2	0
283.4467960880138	0.7974269999540411	2	49	515496.8021	56.25	1.0913030999945477	2	0
284.24422308796784	0.7987348000169732	2	49	515497.6792	50	1.1709288000129163	2	0
285.0429578879848	0.8086500000208616	2	0	0	0	0	0	0
285.8516078880057	0.8007637999835424	2	49	515498.6824	75	0.5667997	1	0
286.6523716879892	0.7986045000143349	2	49	515499.6372	93.75	0.7208319	1	0
287.45097618800355	0.8127565999748185	2	49	515500.8824	50	1.1673906000214629	2	0
288.26373278797837	0.8131914000259712	1	0	0	0	0	0	0
289.07692418800434	0.7999042000155896	2	49	515502.5506	43.75	1.2097068000002764	2	0
289.87682838801993	0.7974046999588609	2	0	0	0	0	0	0
290.6742330879788	0.800961	2	49	515503.4414	68.75	0.5031420000013895	1	0
291.4751940880087	0.8016053999890573	2	49	515504.4683	100	0.7291137999854982	1	0
292.2767994879978	0.8004405000247061	2	49	515505.4426	81.25	0.9017922999919392	2	0
293.0772399880225	0.7973640999989584	1	0	0	0	0	0	0
293.87460408802144	0.8015623999526724	2	49	515507.039	81.25	0.9003440999658778	2	0
294.6761664879741	0.8004363999934867	2	0	0	0	0	0	0
295.4766028879676	0.8007456000195816	2	49	515508.2976	75	0.5570250000455417	1	0
296.2773484879872	0.7998601000290364	2	49	515509.3745	87.5	0.8331142999813892	2	0
297.0772085880162	0.8001734999706969	2	49	515510.355	68.75	1.0137471999623813	2	0
297.8773820879869	0.7976839999901131	2	0	0	0	0	0	0
298.67506608797703	0.8004307000082918	2	49	515511.4017	62.5	0.4626233000308275	1	0
299.4754967879853	0.8039482000167482	2	49	515512.5599	93.75	0.8203461000230163	2	0
300.27944498800207	0.7989691999973729	2	49	515513.4329	81.25	0.8894078999874182	2	0
301.07841418799944	0.8020286000100896	2	49	515514.3688	62.5	1.0264110999996774	2	0
301.88044278800953	0.8059145	2	49	515515.1528	68.75	1.0083735999651253	2	0
302.6863572879811	0.8004993	2	49	515516.2011	37.5	1.2507304000318982	2	0
303.48685658798786	0.7994234000216238	1	0	0	0	0	0	0
304.2862799880095	0.7991479999618605	2	49	515517.6018	62.5	1.051549099967815	2	0
305.08542798797134	0.8038630000082776	2	0	0	0	0	0	0
305.8892909879796	0.7979535000049509	2	49	515518.772	81.25	0.6186804000171833	1	0
306.6872444879846	0.8007959	2	49	515519.6779	100	0.7266632000100799	1	0
307.4880403879797	0.8068878999911249	2	49	515520.7682	68.75	1.0161672999965958	2	0
308.29492828797083	0.7985660000122152	2	0	0	0	0	0	0
309.09349428798305	0.8008105999906547	2	49	515522.1551	93.75	0.7976374999852851	2	0
309.8943048879737	0.7985886000096798	2	49	515522.957	93.75	0.7987283000256866	2	0
310.6928934879834	0.8010154000367038	2	49	515523.9179	75	0.9610000000102445	2	0
311.4939088880201	0.8017038999823853	2	49	515524.7293	75	0.9713373999693431	2	0
312.2956127880025	0.8016764000058174	2	49	515525.6313	62.5	1.0716831000172533	2	0
313.0972891880083	0.8011192	2	49	515526.5071	50	1.1458445999887772	2	0
313.89840838802047	0.7955422999802977	2	0	0	0	0	0	0
314.69395068800077	0.8002522999886423	2	49	515527.4072	62.5	0.4492579000070691	1	0
315.4942029879894	0.7981199999921955	2	49	515528.1993	62.5	0.4411281999782659	1	0
316.2923229879816	0.8033668000134639	2	49	515529.0852	75	0.5289088	1	0
317.09568978799507	0.7998496000072919	1	49	515529.7883	62.5	0.42859309999039397	1	0
317.89553938800236	0.8040205999859609	2	49	515531.1376	68.75	0.9780411999672651	2	0
318.6995599879883	0.7994325	2	49	515532.1297	50	1.1660837000235915	2	0
319.49899248802103	0.8036386999883689	2	49	515532.9112	50	1.1481817999738269	2	0
320.3026311880094	0.8003206999856047	2	0	0	0	0	0	0
321.1029519	0.7997981000225991	2	49	515533.8943	75	0.5273778000264429	1	0
321.9027499880176	0.8017729999846779	2	49	515534.7227	75	0.5558966999524273	1	0
322.7045229880023	0.7995935999788344	2	49	515536.1248	50	1.1562288000131957	2	0
323.5041165879811	0.7973246999899857	2	0	0	0	0	0	0
324.3014412879711	0.8019007000257261	2	49	515537.0272	62.5	0.4617490000091493	1	0
325.1033419879968	0.8004760000039823	2	49	515537.8484	68.75	0.48107729997718707	1	0
325.9038179880008	0.7990639000199735	2	49	515538.8836	93.75	0.7158121999818832	1	0
326.7028818880208	0.8036732999607921	2	49	515539.9779	68.75	1.0109960999689065	2	0
327.5065551879816	0.8055708	2	49	515540.9882	43.75	1.2176031999988481	2	0
328.3121259880136	0.8006105999811552	2	0	0	0	0	0	0
329.11273658799473	0.7974763999809511	2	49	515542.0037	87.5	0.6269219000241719	1	0
329.9102129879757	0.8073197000194341	2	49	515543.4047	43.75	1.2304435000405647	2	0
330.7175326879951	0.8009794999961741	2	49	515543.9571	68.75	0.9755301999975927	2	0
331.5185121879913	0.8043688000179827	2	49	515544.6381	87.5	0.8555864000227302	2	0
332.3228809880093	0.7975883	2	49	515545.4233	87.5	0.8363689999678172	2	0
333.1204692879692	0.806382	2	49	515546.5121	56.25	1.1276232000091113	2	0
333.92685128800804	0.8033366000163369	2	49	515547.2118	68.75	1.0209082000073977	2	0
334.7301878880244	0.8009155999752693	2	49	515548.089	56.25	1.094759100000374	2	0
335.53110348799964	0.7997306999750435	1	0	0	0	0	0	0
336.3308341879747	0.8038580000284128	2	49	515549.5562	75	0.9613573	2	0
337.1346921880031	0.7985371999675408	1	49	515550.2014	93.75	0.8026473000063561	2	0
337.93322938797064	0.7987831000355072	2	0	0	0	0	0	0
338.73201248800615	0.7992110999766737	2	49	515551.577	81.25	0.5809243000112474	1	0
339.5312235879828	0.8184649	2	49	515552.132	50	0.3367236999911256	1	0
340.34968848800054	0.8018162000225857	1	49	515553.1291	68.75	0.515376	1	0
341.1515046880231	0.8008307999698445	2	49	515554.5592	50	1.1436723999795504	2	0
341.95233548799297	0.8025998999946751	2	0	0	0	0	0	0
342.75493538798764	0.8000277	1	49	515555.9352	81.25	0.9162785999942571	2	0
343.5549630880123	0.8000576999620534	2	0	0	0	0	0	0
344.35502078797435	0.7997292000218295	2	49	515557.4353	93.75	0.8162443000474013	2	0
345.1547499879962	0.8076945000211708	2	49	515558.3244	81.25	0.9056777	2	0
345.96244448801735	0.8007727999938652	2	49	515559.2943	62.5	1.067850699997507	2	0
346.7632172880112	0.7994784999755211	2	0	0	0	0	0	0
347.56269578798674	0.8091387000167742	2	49	515560.333	68.75	0.5062674999935552	1	0
348.3718344880035	0.8107346000033431	2	49	515561.6252	68.75	0.9893900000024587	2	0
349.18256908800686	0.7987856999970973	2	49	515562.6163	50	1.1697307999711484	2	0
349.98135478800396	0.8015627000131644	2	49	515563.4356	43.75	1.1902168999658898	2	0
350.7829174880171	0.7989936000085436	2	49	515564.2434	43.75	1.196458199992776	2	0
351.58191108802566	0.8006721999845468	2	49	515565.0587	43.75	1.2127375999698415	2	0
352.3825832880102	0.7980796999763697	1	0	0	0	0	0	0
353.1806629879866	0.7987961000180803	2	49	515566.4456	68.75	1.0009080999880098	2	0
353.97945908800466	0.8040136999916285	2	49	515567.3246	62.5	1.0811082000145689	2	0
354.7834727879963	0.8068302000174299	2	49	515568.0914	62.5	1.0439522999804467	2	0
355.5903029880137	0.7974434999632649	2	49	515568.8055	75	0.9512246999656782	2	0
356.3877465	0.8029862000257708	1	49	515569.5584	81.25	0.9066842	2	0
357.19073268800275	0.7998089999891818	2	0	0	0	0	0	0
357.99054168799194	0.7988531999872066	2	49	515570.8968	87.5	0.6422748999902979	1	0
358.78939488797914	0.7980363999959081	2	49	515571.7499	93.75	0.6964783000294119	1	0
359.58743128797505	0.7972473000409082	2	49	515572.6108	100	0.7593895000172779	1	0
360.38467858801596	0.8004966999869794	2	0	0	0	0	0	0
361.18517528800294	0.8011630999972112	2	49	515574.1326	93.75	0.6834028	1	0
361.98633838800015	0.8004394000163302	1	0	0	0	0	0	0
362.7867777880165	0.8012098000035621	2	49	515575.7035	87.5	0.6527303999755532	1	0
363.58798758802004	0.7984511999529786	2	49	515576.6218	100	0.7698412999743596	1	0
364.3864388	0.7993005000171252	2	49	515577.5352	81.25	0.8847697000019252	2	0
365.18573928799015	0.7969649999868125	2	49	515578.4629	68.75	1.013117800001055	2	0
365.98270428797696	0.7974311000434682	1	0	0	0	0	0	0
366.7801353880204	0.7997085999813862	2	49	515580.0679	62.5	1.0237355999997817	2	0
367.5798439880018	0.7991778000141494	2	49	515580.9423	56.25	1.0984434999991208	2	0
368.37902178801596	0.8036023000022396	2	49	515581.6429	68.75	0.9998867999529466	2	0
369.1826240880182	0.8025963999680243	2	49	515582.6615	43.75	1.2148456999566406	2	0
369.9852204879862	0.7977595999836922	2	49	515583.448	43.75	1.1987804000382312	2	0
370.7829800879699	0.8082371	2	0	0	0	0	0	0
371.59121718798997	0.7987092999974266	2	49	515584.3291	68.75	0.47386500000720844	1	0
372.3899264879874	0.7994521000073291	2	49	515585.1481	68.75	0.4941533000092022	1	0
373.1893785879947	0.8049531999859028	1	49	515586.1621	93.75	0.7087123999954201	1	0
373.9943317879806	0.7981798000400886	2	49	515587.2022	75	0.9438853000174277	2	0
374.7925115880207	0.7967039999784902	1	0	0	0	0	0	0
375.5892155879992	0.8005735999904573	2	49	515588.8006	75	0.9473959999741055	2	0
376.38978918798966	0.7985331	1	49	515589.7021	62.5	1.048303699993994	2	0
377.1883222879842	0.8080474000307731	1	49	515590.5181	62.5	1.065795500006061	2	0
377.99636968801497	0.7976420999621041	2	0	0	0	0	0	0
378.79401178797707	0.8007641000440344	2	49	515591.9311	81.25	0.8730854000314139	2	0
379.5947758880211	0.7985486999968998	2	49	515592.6208	100	0.7620124999666587	1	0
380.3933246	0.7977836999925785	2	49	515593.4332	93.75	0.7758409999660216	2	0
381.1911082880106	0.8008146999636665	2	49	515594.1682	93.75	0.7130803999607451	1	0
381.99192298797425	0.8009315000381321	2	49	515595.2326	68.75	0.9766190000227652	2	0
382.7928544880124	0.8008294999599457	2	49	515596.1483	56.25	1.091415999981109	2	0
383.5936839879723	0.8042266000411473	1	0	0	0	0	0	0
384.3979105880135	0.7997379999724217	2	49	515597.5282	87.5	0.8662661999696866	2	0
385.1976485879859	0.7968615000136197	2	49	515598.5345	56.25	1.0728629000368528	2	0
385.9945100879995	0.7998386999825016	2	49	515599.3864	50	1.1278561999788508	2	0
386.7943488	0.7983999000280164	2	49	515600.1525	56.25	1.0941022000042722	2	0
387.59274868801003	0.8025006999960169	2	0	0	0	0	0	0
388.39524938800605	0.8024360999697819	2	49	515601.1934	75	0.5341450999840163	1	0
389.19768548797583	0.7991372999968007	1	49	515602.1495	93.75	0.6877856000210159	1	0
389.99682278797263	0.7991602999973111	2	49	515603.0005	100	0.7396554000442848	1	0
390.79598308796994	0.8010766000370495	2	49	515604.0666	68.75	1.0066032000468113	2	0
391.5970597	0.7998791999998502	2	49	515605.0366	43.75	1.175576000008732	2	0
392.39693888800684	0.8039177000173368	2	0	0	0	0	0	0
393.2008565880242	0.7993485999759287	2	49	515606.1075	87.5	0.6426239999709651	1	0
394.0002051880001	0.7970184999867342	1	49	515606.9567	93.75	0.6925138999940827	1	0
394.79722368798684	0.7974213000270538	1	0	0	0	0	0	0
395.5946449880139	0.7974912999779917	2	49	515608.414	75	0.5553338999743573	1	0
396.3921362879919	0.7971745	2	49	515609.4257	93.75	0.7695305999950506	2	0
397.18931078800233	0.7985254999948665	2	49	515610.3567	81.25	0.9033368999953382	2	0
397.9878362879972	0.7959476999822073	2	49	515611.3719	50	1.120080600026995	2	0
398.7837839879794	0.801666	2	49	515612.2198	50	1.1719663999974728	2	0
399.58544998802245	0.7993385999579914	2	0	0	0	0	0	0
400.38478858798044	0.8014905999880284	2	49	515613.3108	87.5	0.6619776000152342	1	0
401.18627918796847	0.8015881000319496	2	49	515614.2962	87.5	0.8459369000047445	2	0
401.9878672880004	0.8033106999937445	2	49	515615.1453	81.25	0.8933739999774843	2	0
402.79117798799416	0.7981472000246868	2	0	0	0	0	0	0
403.58932518801885	0.8009210999589413	2	49	515616.5769	93.75	0.723516	1	0
404.3902462879778	0.7985583000117913	2	49	515617.387	100	0.7327609999920242	1	0
405.1888045879896	0.7981297000078484	2	49	515618.2246	93.75	0.7717809000168927	2	0
405.9869342879974	0.7992193999816664	2	49	515619.2613	68.75	1.0103398999781348	2	0
406.7861536879791	0.8052299999981187	2	49	515620.2704	43.75	1.2202038000104949	2	0
407.5913836879772	0.8110239999950863	2	0	0	0	0	0	0
408.4024076879723	0.7967965000425465	2	49	515621.1631	68.75	0.49672220001230016	1	0
409.19920418801485	0.7997637999942526	2	49	515622.301	87.5	0.8377801000024192	2	0
409.9989679880091	0.7991807999787852	2	49	515623.2525	68.75	0.9895137	2	0
410.7981487879879	0.8007653999957256	2	49	515624.2718	43.75	1.209636399988085	2	0
411.5989141879836	0.8028883000370115	2	0	0	0	0	0	0
412.4018024880206	0.8017119999858551	1	49	515625.3297	87.5	0.6638932999921963	1	0
413.2035144880065	0.8016128999879584	2	0	0	0	0	0	0
414.00512738799443	0.8014374999911524	2	49	515626.9674	93.75	0.6982849999913014	1	0
414.8065648879856	0.8005305000115186	2	49	515627.893	87.5	0.8224111000308767	2	0
415.6070953879971	0.8022374	1	49	515628.7826	81.25	0.9114745000260882	2	0
416.4093327880255	0.7993641999782994	2	0	0	0	0	0	0
417.2086969880038	0.8002443	2	49	515630.2124	100	0.7396601000218652	1	0
418.0089412879897	0.8014489	2	49	515631.1826	81.25	0.9096148000098765	2	0
418.8103901880095	0.7997804000042379	2	49	515632.2425	50	1.1680711999651976	2	0
419.6101705880137	0.7978652999736369	2	0	0	0	0	0	0
420.40803588798735	0.7970229	2	49	515633.5245	87.5	0.8524335999973118	2	0
421.2050587880076	0.7983663000050001	1	0	0	0	0	0	0
422.0034250880126	0.7969266999862157	2	0	0	0	0	0	0
422.8003517879988	0.7982408999814652	2	49	515635.5257	62.5	0.4613199000013992	1	0
423.5985926879803	0.7999115000129677	2	49	515636.1765	43.75	0.3138514999882318	1	0
424.39850418799324	0.8010911000310443	2	49	515637.627	75	0.9644341000239365	2	0
425.1995952880243	0.7998121	2	49	515638.5315	62.5	1.0678998999646865	2	0
425.99940738797886	0.7970848000259139	2	49	515639.3226	62.5	1.059155200025998	2	0
426.7964921880048	0.7975912	2	49	515640.195	50	1.1345335000078194	2	0
427.59408338798676	0.7994106999831274	2	0	0	0	0	0	0
428.3934940879699	0.7994242000277154	2	49	515641.0896	62.5	0.4320675000199117	1	0
429.1929182879976	0.8001186000183225	2	49	515642.0966	87.5	0.6396965999738313	1	0
429.9930368880159	0.8082084	2	49	515643.4548	43.75	1.1977054000017233	2	0
430.80124528799206	0.8068197999964468	1	0	0	0	0	0	0
431.6080650879885	0.7985931999864988	2	0	0	0	0	0	0
432.4066583	0.7986626000492834	2	49	515645.2758	81.25	0.6051278000231832	1	0
433.2053208880243	0.8054959999863058	2	49	515646.1791	93.75	0.7098101999727078	1	0
434.0108168880106	0.8093119999975897	2	49	515647.1059	93.75	0.8310306000057608	2	0
434.8201288880082	0.8012310999911278	2	49	515648.2891	43.75	1.2049159000162035	2	0
435.6213599879993	0.8013004999957047	2	0	0	0	0	0	0
436.4226605	0.8014593999832869	2	49	515649.198	68.75	0.5113245000247844	1	0
437.2241198879783	0.8153109000413679	2	49	515650.0849	81.25	0.5967916	1	0
438.0394307880197	0.7995031999889761	2	49	515651.1693	87.5	0.8658724999986589	2	0
438.83893398800865	0.8017463000142016	2	49	515652.139	62.5	1.0360065000131726	2	0
439.64068028802285	0.7967545999563299	1	0	0	0	0	0	0
440.4374348879792	0.8012769999913871	2	49	515653.554	87.5	0.8525822	2	0
441.23871188797057	0.8020510000060312	2	49	515654.486	68.75	0.9833231000229716	2	0
442.0407628879766	0.7977609999943525	2	49	515655.4671	50	1.1623312000301667	2	0
442.83852388797095	0.7997852000407875	2	49	515656.2801	43.75	1.1775618000538088	2	0
443.63830908801174	0.809173	2	0	0	0	0	0	0
444.44748208799865	0.7994984000106342	2	49	515657.2123	68.75	0.5007897000177763	1	0
445.2469804880093	0.8002627000096254	2	49	515658.0267	68.75	0.5156759999808855	1	0
446.0472431880189	0.8009058999596164	2	49	515658.9143	81.25	0.6030750999925658	1	0
446.8481490879785	0.7992067000013776	2	49	515659.6473	75	0.5350920000346377	1	0
447.6473557879799	0.7975718000088818	1	49	515660.3071	56.25	0.39572500000940636	1	0
448.4449275879888	0.7975267000147142	1	0	0	0	0	0	0
449.2424542880035	0.8062640000134706	2	49	515662.4104	81.25	0.9039695999817923	2	0
450.04871828801697	0.7985880000051111	2	49	515663.1003	93.75	0.7875495000043884	2	0
450.8473062880221	0.7973545999848284	1	0	0	0	0	0	0
451.6446608880069	0.8011305999825709	2	49	515664.6086	93.75	0.6999068000004627	1	0
452.4457914879895	0.8056958999950439	2	49	515665.5112	93.75	0.8013856000034139	2	0
453.2514873879845	0.8027701000100933	2	49	515666.3183	93.75	0.8028147000004537	2	0
454.0542574879946	0.8032074000220746	2	49	515667.1944	81.25	0.8761743999784812	2	0
454.8574648880167	0.7987305999849923	2	49	515667.9955	81.25	0.8740652999840677	2	0
455.6561954880017	0.7996738000074401	2	49	515668.829	81.25	0.9087691999739036	2	0
456.4558692880091	0.7974890999612398	2	49	515669.7344	68.75	1.0144932999974117	2	0
457.25335838797037	0.7987757000373676	2	49	515670.5686	62.5	1.0512048000236973	2	0
458.05213408800773	0.8000181000097655	2	0	0	0	0	0	0
458.8521521880175	0.7999711000011303	1	0	0	0	0	0	0
459.65212328801863	0.7988484	2	49	515672.2416	50	0.32548199995653704	1	0
460.4509716879693	0.7979252000222914	2	49	515673.8295	56.25	1.114489700004924	2	0
461.2488968879916	0.7988460999913514	2	0	0	0	0	0	0
462.04774298798293	0.799908	2	49	515675.3245	68.75	1.0127371000126004	2	0
462.84765098796925	0.7979071000008844	2	49	515676.2526	50	1.1409227000549436	2	0
463.64555808797013	0.7998906000284478	2	0	0	0	0	0	0
464.4454486879986	0.8097378999809735	2	49	515677.1838	68.75	0.4743388000060804	1	0
465.25518658797955	0.7997235000366345	2	49	515677.9868	62.5	0.4675561999902129	1	0
466.0549100880162	0.8028156000073068	2	49	515678.8038	68.75	0.4848999999812804	1	0
466.8577256880235	0.7977113999659196	2	49	515679.6059	68.75	0.48417349997907877	1	0
467.6554370879894	0.8037599999806844	2	49	515680.3499	62.5	0.43047520000254735	1	0
468.4591970879701	0.7987874000100419	2	49	515681.236	68.75	0.5127544000279158	1	0
469.25798448798014	0.7990282000391744	2	49	515682.8149	31.25	1.2929092000122182	2	0
470.0570126880193	0.8099896999774501	1	0	0	0	0	0	0
470.86700238799676	0.8007322999765165	2	0	0	0	0	0	0
471.6677346879733	0.7983954999945126	1	0	0	0	0	0	0
472.4661301879678	0.7973778000450693	2	49	515685.8579	50	1.1277588000521064	2	0
473.26350798801286	0.7978661999804899	2	49	515686.511	68.75	0.9834796999930404	2	0
474.06137418799335	0.8033613000297919	2	49	515687.3091	68.75	0.9836944999988191	2	0
474.86473548802314	0.8015722999698482	2	49	515688.2414	56.25	1.1126368999830447	2	0
475.6663078	0.7975093999993987	2	0	0	0	0	0	0
476.4638171879924	0.7993018	2	49	515689.1606	62.5	0.4328115	1	0
477.2631189880194	0.8024458999861963	1	49	515690.1302	81.25	0.6030432999832556	1	0
478.0655648880056	0.7976674999808893	2	0	0	0	0	0	0
478.8632323879865	0.7998499000095762	2	49	515691.6062	68.75	0.47894370002904907	1	0
479.6630822879961	0.8005176999722607	2	49	515692.3185	56.25	0.39144099998520687	1	0
480.46359998796834	0.7983001000247896	2	49	515693.2023	68.75	0.47465240000747144	1	0
481.2619000879931	0.8136397000052966	1	0	0	0	0	0	0
482.0755397879984	0.8034177	2	49	515695.0297	93.75	0.6901853000163101	1	0
482.8789575	0.7989433000329882	2	49	515696.0233	81.25	0.8803598000085913	2	0
483.6779008	0.7988160999957472	2	49	515697	62.5	1.058106999960728	2	0
484.47671688802075	0.8029529999475926	2	49	515697.6584	81.25	0.9176313999923877	2	0
485.27966988796834	0.7988374000415206	2	0	0	0	0	0	0
486.07850728800986	0.7987167999963276	2	49	515698.8765	75	0.5339678999735042	1	0
486.8772240880062	0.8069298999616876	2	49	515699.496	50	0.35473819996695966	1	0
487.6841539879679	0.7971113	2	49	515700.6434	93.75	0.6951997000142001	1	0
488.48126528802095	0.7995988999609835	2	49	515701.5125	100	0.7672189999721013	1	0
489.28086418798193	0.7981359999976121	2	49	515702.4727	75	0.9278470000135712	2	0
490.07900018797955	0.8018002000171691	2	49	515703.2988	75	0.9557876	2	0
490.8808003879967	0.7968508999911137	2	49	515704.3184	43.75	1.1735622999840416	2	0
491.6776512879878	0.7998141000280157	2	0	0	0	0	0	0
492.47746538801584	0.7979318999568932	2	49	515705.6677	75	0.9262267999583855	2	0
493.27539728797274	0.8078747999970801	2	49	515706.5757	62.5	1.036275700025726	2	0
494.0832720879698	0.8016334000276402	2	49	515707.5768	43.75	1.2294698000187054	2	0
494.88490548799746	0.8004360999912024	2	0	0	0	0	0	0
495.68534158798866	0.7992476000217721	2	0	0	0	0	0	0
496.48458918801043	0.8004890999873169	2	49	515709.1997	62.5	0.4511046999832615	1	0
497.28507828799775	0.8067879999871366	2	49	515710.5963	62.5	1.0471641999902204	2	0
498.0918662879849	0.8005319000221789	2	49	515711.4368	56.25	1.0808966000331566	2	0
498.89239818800706	0.8037040999624878	2	49	515712.3186	50	1.162226999993436	2	0
499.69610228796955	0.7980123000452295	2	0	0	0	0	0	0
500.4941145880148	0.7997934	2	49	515713.222	62.5	0.4638550999807194	1	0
501.2939079880016	0.7993165000225417	2	49	515714.086	75	0.5280898	1	0
502.09322448802413	0.8002891999785788	2	49	515715.0859	100	0.7286907999659888	1	0
502.8935136880027	0.7969473999692127	2	49	515716.0251	81.25	0.8675275	2	0
503.6904610879719	0.7978528999956325	2	49	515716.892	75	0.9375209000427276	2	0
504.48831398796756	0.8020417000516318	2	49	515717.78	62.5	1.0276229	2	0
505.2903556880192	0.7989148999913596	2	49	515718.6105	62.5	1.0560938999988139	2	0
506.08927058801055	0.7976565000135452	2	49	515719.4222	56.25	1.0689311999594793	2	0
506.8869270880241	0.7995677999570034	2	49	515720.2361	56.25	1.0851260999916121	2	0
507.6864948879811	0.7985181999974884	1	0	0	0	0	0	0
508.4850130879786	n/a	0	0	0	0	0	0	0