onset	duration	cue	constant1	timestamp	stimulus_coherence	response_time	response	constant2
20.06511280000268	0.8064710999897216	1	0	0	0	0	0	0
20.8715839	0.8007261000020662	2	49	67862.85955	87.5	0.8308853000053205	2	0
21.672309999994468	0.7993563000054564	1	49	67863.73361	81.25	0.9042180999967968	2	0
22.471666299999924	0.8056298000010429	2	49	67864.62434	68.75	0.9955866999953287	2	0
23.277296100000967	0.8068676999973832	2	49	67865.59962	50	1.1652399000013247	2	0
24.08416379999835	0.8140081000019563	2	49	67866.08351	87.5	0.8422645999962697	2	0
24.898171900000307	0.8038398999924539	2	49	67866.69436	87.5	0.6391044999909354	1	0
25.70201179999276	0.8025462000077823	2	49	67867.46491	81.25	0.6058098	1	0
26.504558000000543	0.7999213000002783	2	49	67868.54471	81.25	0.8830706000007922	2	0
27.30447930000082	0.7974294000014197	2	49	67869.1536	93.75	0.6920378999930108	1	0
28.10190870000224	0.8014544999896316	2	49	67870.07759	93.75	0.8185915999929421	2	0
28.903363199991873	0.8032198	2	49	67870.82201	100	0.7615636999980779	1	0
29.70658299999195	0.8001530000037747	2	49	67871.63175	100	0.7680795000051148	1	0
30.506735999995726	0.8009142999944743	1	49	67872.36257	93.75	0.6987462999968557	1	0
31.3076503	0.7991492000001017	1	0	0	0	0	0	0
32.1067995	0.8016428000119049	2	49	67874.10547	87.5	0.8415879000094719	2	0
32.90844230000221	0.7972711999900639	2	49	67874.7378	93.75	0.6722707000008086	1	0
33.70571349999227	0.7956795000063721	2	49	67875.54095	93.75	0.6781535000045551	1	0
34.50139299999864	0.7999330000020564	1	49	67876.34106	93.75	0.6825834999908693	1	0
35.301326	0.7975262	2	49	67877.15208	93.75	0.6936730000015814	1	0
36.098852199997054	0.7954648000013549	2	49	67877.96292	93.75	0.7069802000041818	1	0
36.89431699999841	0.7972607999981847	2	49	67878.88283	87.5	0.8314264999935403	2	0
37.691577799996594	0.7952599999989616	2	49	67879.63293	93.75	0.7842663000046741	2	0
38.486837799995556	0.8054834000067785	2	49	67880.35298	93.75	0.7090566	1	0
39.292321200002334	0.8067134999873815	1	49	67881.31018	87.5	0.8607765999913681	2	0
40.099034699989716	0.8032006000139518	2	49	67882.20747	75	0.9513535000005504	2	0
40.90223530000367	0.8081036999938078	2	49	67882.92116	87.5	0.8618437999975868	2	0
41.710338999997475	0.8047666000056779	2	49	67883.71323	87.5	0.8458074	2	0
42.51510560000315	0.8039561999903526	2	49	67884.54105	87.5	0.8688612999976613	2	0
43.319061799993506	0.7989973000076134	2	49	67885.36399	81.25	0.8878408	2	0
44.11805910000112	0.8040581999957794	2	49	67886.00137	100	0.7262277999980142	1	0
44.9221173	0.8012069999967935	2	49	67886.7592	93.75	0.6799939000047743	1	0
45.72332429999369	0.8002105000050506	2	49	67887.67214	93.75	0.7917294000071706	2	0
46.52353479999874	0.8000409	1	0	0	0	0	0	0
47.323575699992944	0.8081808999995701	2	49	67889.20281	93.75	0.7221484	1	0
48.131756599992514	0.8009853000112344	2	49	67889.96431	93.75	0.6754657999990741	1	0
48.93274190000375	0.8005335999914678	2	49	67890.75383	87.5	0.6640070999856107	1	0
49.733275499995216	0.799233	2	49	67891.61625	100	0.7258881000016117	1	0
50.53250849999313	0.8046048999967752	2	49	67892.46047	100	0.7708721000090009	1	0
51.3371134	0.7998643000028096	2	49	67893.31964	87.5	0.8254448000079719	2	0
52.13697769999271	0.8032510000048205	2	49	67894.08335	93.75	0.7892828000040026	2	0
52.94022869999753	0.8038846999988891	2	49	67895.15465	62.5	1.057333299992024	2	0
53.74411339999642	0.8181872	1	0	0	0	0	0	0
54.56230059999507	0.8100717	2	49	67896.14045	56.25	0.4210672000044724	1	0
55.37237230000028	0.8020614999986719	2	49	67897.21548	93.75	0.6860219999944093	1	0
56.17443379999895	0.8002417999960016	2	49	67898.26752	75	0.9360019	2	0
56.97467559999495	0.8007224000029964	2	49	67899.05277	81.25	0.9210106999962591	2	0
57.77539799999795	0.8001175999961561	2	49	67899.87104	75	0.9385547999991104	2	0
58.575515599994105	0.8022894000023371	1	0	0	0	0	0	0
59.37780499999644	0.8004019999934826	2	49	67901.14982	81.25	0.6149335999944014	1	0
60.178206999989925	0.8011220000043977	2	49	67902.21184	81.25	0.876551	2	0
60.97932899999432	0.8050229000073159	2	49	67903.1066	75	0.9701870999997482	2	0
61.78435190000164	0.8058648000005633	2	49	67903.71179	100	0.7703553999890573	1	0
62.5902167	0.8013730999955442	1	0	0	0	0	0	0
63.391589799997746	0.8006262999988394	2	49	67905.10887	75	0.5601902999915183	1	0
64.19221609999659	0.8065045999974245	2	49	67906.19412	87.5	0.8448192999931052	2	0
64.99872069999401	0.8001841000077548	2	49	67906.81414	87.5	0.6583374	1	0
65.79890480000176	0.8038957999960985	1	0	0	0	0	0	0
66.60280059999786	0.8059839000052307	2	49	67908.36384	81.25	0.6039492999989307	1	0
67.4087845	0.8057892999931937	2	49	67909.20897	87.5	0.6431037000002107	1	0
68.21457379999629	0.8019791999977315	2	49	67910.03702	87.5	0.6653626000043005	1	0
69.01655299999402	0.8042311	2	49	67910.96362	93.75	0.7899785000045085	2	0
69.82078409999667	0.8018811999936588	2	49	67911.75292	93.75	0.7750524	2	0
70.62266529999033	0.8014092000084929	2	49	67912.63922	87.5	0.8594672000035644	2	0
71.42407449999882	0.8022605000005569	2	49	67913.59911	68.75	1.0179457999911392	2	0
72.22633499999938	0.8005293000023812	2	49	67914.40924	62.5	1.0258200999960536	2	0
73.02686430000176	0.8076176999893505	2	49	67914.96799	93.75	0.7840437999984715	2	0
73.83448199999111	0.7996150000108173	2	49	67915.77819	93.75	0.7866237999987788	2	0
74.63409700000193	0.8020610999956261	2	49	67916.57854	93.75	0.7873560000007274	2	0
75.43615809999756	0.7992677000002004	2	49	67917.42718	87.5	0.8339411000051768	2	0
76.23542579999776	0.8056137999956263	2	49	67918.23846	87.5	0.8459485999919707	2	0
77.04103959999338	0.8029384999972535	2	49	67919.06378	87.5	0.8656517000054009	2	0
77.84397809999064	0.8038113	2	49	67919.99219	68.75	0.9911233000020729	2	0
78.64778939999815	0.8074894000019412	2	49	67920.77375	75	0.9688776999973925	2	0
79.45527880000009	0.7996825000009267	2	49	67921.4676	87.5	0.8552378000022145	2	0
80.25496130000101	0.8016318000009051	2	49	67922.31129	81.25	0.8992385000019567	2	0
81.05659310000192	0.8087631	2	49	67923.06737	87.5	0.8536882999906084	2	0
81.86535619999631	0.8081242000043858	2	49	67923.8928	87.5	0.8703631	2	0
82.6734804	0.8014572999964003	2	49	67924.67473	87.5	0.8441612000024179	2	0
83.4749377	0.8032225000060862	1	0	0	0	0	0	0
84.27816020000319	0.8025089999864576	1	0	0	0	0	0	0
85.08066919998964	0.8015656000061426	2	49	67927.09698	87.5	0.8592239999998128	2	0
85.88223479999579	0.7982595000066794	1	0	0	0	0	0	0
86.68049430000247	0.7976962999964599	2	49	67928.52241	93.75	0.6848336999973981	1	0
87.47819059999892	0.8005515999975614	2	49	67929.38126	100	0.7459851000021445	1	0
88.27874219999649	0.8003844000049867	2	49	67930.22545	93.75	0.7896263000002364	2	0
89.07912660000147	0.8014319999929285	1	0	0	0	0	0	0
89.8805586	0.8042922000022372	2	49	67931.71597	93.75	0.6783223	1	0
90.68485079999664	0.8108700000011595	2	49	67932.55563	93.75	0.7136963999946602	1	0
91.4957208	0.7998087000014493	2	49	67933.34877	93.75	0.6959627000032924	1	0
92.29552949999925	0.8020624999917345	1	0	0	0	0	0	0
93.09759199999098	0.8020506000029854	2	49	67934.92968	93.75	0.6750056000018958	1	0
93.89964259999397	0.8047516000078758	2	49	67935.95584	81.25	0.8991076999955112	2	0
94.70439420000184	0.8028044	2	49	67936.63273	100	0.7712549	1	0
95.50719859999663	0.8012477000011131	1	0	0	0	0	0	0
96.30844629999774	0.8058289000036893	2	49	67938.19472	100	0.7291841999976896	1	0
97.11427520000143	0.8005540000012843	2	49	67939.21815	75	0.946789	2	0
97.91482920000271	0.8006418999866582	1	0	0	0	0	0	0
98.71547109998937	0.8023036000085995	2	49	67940.62788	100	0.7553232000063872	1	0
99.51777469999797	0.8060008000029484	2	49	67941.42301	100	0.7481516999978339	1	0
100.32377550000092	0.8000509999983478	2	49	67942.25427	93.75	0.7734054999891669	2	0
101.12382649999927	0.8012429999944288	2	49	67943.15107	87.5	0.8701605999958701	2	0
101.9250694999937	0.8014868000027491	2	49	67943.96595	81.25	0.8837991000036709	2	0
102.72655629999645	0.8023007000010693	2	49	67944.75934	81.25	0.8756985999934841	2	0
103.52885699999752	0.8028993000043556	2	49	67945.64014	75	0.9542022999958135	2	0
104.33175630000187	0.8010089000017615	2	49	67946.50475	68.75	1.015910799993435	2	0
105.13276520000363	0.8057361999963177	2	49	67947.28915	68.75	0.9992954999906942	2	0
105.93850139999995	0.8020741999935126	2	49	67948.0694	68.75	0.9738121999980649	2	0
106.74057559999346	0.8006265000003623	2	49	67948.80511	81.25	0.9074502000003122	2	0
107.54120209999382	0.7993715000047814	2	49	67949.54934	87.5	0.8510565000033239	2	0
108.3405735999986	0.8037258999975165	2	49	67950.36817	87.5	0.8705138999939663	2	0
109.14429949999612	0.8022162999986904	2	49	67951.2964	68.75	0.9950198000005912	2	0
109.94651579999481	0.7992465999996057	2	49	67951.9943	81.25	0.8906951999961166	2	0
110.74576239999442	0.8056571000051918	2	49	67952.70322	93.75	0.8003768000053242	2	0
111.55141949999961	0.8000312	2	49	67953.62145	81.25	0.9129488000035053	2	0
112.35145069999271	0.8004805000091437	2	49	67954.54032	62.5	1.0317868999991333	2	0
113.15193120000185	0.8086161999963224	2	49	67955.30189	68.75	0.9928738000016892	2	0
113.96054739999818	0.8029479999968316	2	49	67956.03542	81.25	0.9177844999940135	2	0
114.76349539999501	0.8004686000058427	2	49	67956.82353	81.25	0.9029482000041753	2	0
115.56396400000085	0.7996548	2	49	67957.64145	81.25	0.9203973999974551	2	0
116.36361879999458	0.8075066000019433	2	49	67958.34961	87.5	0.8289067000005161	2	0
117.17112539999653	0.8037503999948967	2	49	67959.0645	100	0.7362870999932056	1	0
117.97487579999142	0.8003533000010066	2	49	67959.87679	100	0.744832	1	0
118.77522909999243	0.7998749999969732	2	49	67960.6837	100	0.7513896000018576	1	0
119.5751040999894	0.8025488000130281	2	49	67961.50166	100	0.7694752000097651	1	0
120.37765290000243	0.8060991999955149	2	49	67962.4306	81.25	0.8958576000004541	2	0
121.18375209999795	0.8064009999943664	2	49	67963.22554	81.25	0.8847023999987869	2	0
121.99015309999231	0.8129606000002241	2	49	67963.95395	93.75	0.8067122000065865	2	0
122.80311369999254	0.8010262	2	49	67964.75675	93.75	0.7965535	2	0
123.60413989999506	0.8006192000029841	2	49	67965.60381	87.5	0.8425847000034992	2	0
124.40475909999805	0.8034532000019681	2	49	67966.51901	75	0.9571660999936284	2	0
125.20821230000001	0.8061491999978898	2	49	67967.24977	81.25	0.8844753000012133	2	0
126.0143614999979	0.8075627999933204	2	49	67968.14806	75	0.9766129000054207	2	0
126.82192429999122	0.8034033000003546	2	49	67968.93684	75	0.9578310000069905	2	0
127.62532759999158	0.7991107999987435	2	49	67969.67829	81.25	0.8958798000094248	2	0
128.42443839999032	0.8025098000071011	2	49	67970.38002	93.75	0.7984972	2	0
129.22694819999742	0.8041171999939252	2	49	67971.21196	87.5	0.8279220999975223	2	0
130.03106539999135	0.8011564000044018	1	0	0	0	0	0	0
130.83222179999575	0.8006776999973226	2	49	67972.62793	87.5	0.6386231000069529	1	0
131.63289949999307	0.8046032999991439	2	49	67973.44287	87.5	0.6528839000093285	1	0
132.43750279999222	0.8010178999975324	2	49	67974.34598	100	0.7513879000034649	1	0
133.23852069998975	0.7994577000063146	2	49	67975.22909	87.5	0.8334847000078298	2	0
134.03797839999606	0.7989032000041334	2	49	67976.01895	87.5	0.8238834999938263	2	0
134.8368816000002	0.8041303999925731	2	49	67976.82613	87.5	0.8321645999967586	2	0
135.64101199999277	0.8008705000102054	2	49	67977.70108	81.25	0.9029804000019794	2	0
136.44188250000298	0.8032850999879884	2	49	67978.49129	81.25	0.8923193999944488	2	0
137.24516759999096	0.8027192000008654	2	49	67979.37086	75	0.9686094	2	0
138.04788679999183	0.8047285	2	49	67980.1066	81.25	0.9016316000052029	2	0
138.85261529999843	0.8030232000019168	2	49	67980.91517	81.25	0.9054699999978766	2	0
139.65563850000035	0.8020906	2	49	67981.75645	75	0.94373	2	0
140.45772910000233	0.8148038999934215	2	49	67982.56973	75	0.9549163999909069	2	0
141.27253299999575	0.8058828000066569	2	49	67983.53155	56.25	1.101926999996067	2	0
142.0784158000024	0.8026287999964552	2	49	67984.42268	43.75	1.1871791999874404	2	0
142.88104459999886	0.7993115999997826	2	49	67985.20126	50	1.1631266000040341	2	0
143.68035619999864	0.8058713999926113	2	49	67986.12327	31.25	1.2858271000004606	2	0
144.48622759999125	0.8053660000005038	1	0	0	0	0	0	0
145.29159359999176	0.8039596	2	49	67987.19552	100	0.7468429000000469	1	0
146.09555319999345	0.8058675000065705	2	49	67988.01048	100	0.7578380000049947	1	0
146.90142070000002	0.8157343999919249	2	49	67988.97327	81.25	0.9147658000001684	2	0
147.71715509999194	0.8140290000010282	2	49	67989.80848	81.25	0.9342392000107793	2	0
148.53118409999297	0.8064475999999559	2	49	67990.60375	81.25	0.9154795000067679	2	0
149.33763169999293	0.8016805	2	49	67991.36737	87.5	0.8726479000033578	2	0
150.13931220000086	0.8032219000015175	2	49	67992.25931	75	0.9629138000018429	2	0
150.94253410000238	0.8051151999970898	1	0	0	0	0	0	0
151.74764929999947	0.8081033999915235	2	49	67993.70798	93.75	0.8032473999919603	2	0
152.5557527	0.8057127	2	49	67994.44459	100	0.7317563	1	0
153.36146539999754	0.8047908000007737	2	49	67995.27261	100	0.7540563999937149	1	0
154.16625619999832	0.8027663999964716	2	49	67996.23837	81.25	0.9150276000000304	2	0
154.9690225999948	0.7998246000061044	2	49	67997.02328	81.25	0.8971697999950266	2	0
155.7688472000009	0.8005198000028031	2	49	67997.76765	87.5	0.8417140999954427	2	0
156.5693670000037	0.7992702999908943	2	49	67998.82188	56.25	1.0954302999889478	2	0
157.3686372999946	0.8007165000017267	2	49	67999.56173	62.5	1.0360075000062352	2	0
158.16935379999632	0.8018873999972129	2	0	0	0	0	0	0
158.97124119999353	0.8034309000067879	2	49	68000.56366	62.5	0.4353370000026189	1	0
159.77467210000032	0.8088654000021052	2	49	68001.54062	81.25	0.6088589999999385	1	0
160.58353750000242	0.8018196999910288	2	49	68002.55553	93.75	0.8149081999872578	2	0
161.38535719999345	0.8035405999980867	2	49	68003.26181	93.75	0.7193633	1	0
162.18889779999154	0.8007378000038443	2	49	68004.09439	100	0.7484112000092864	1	0
162.98963559999538	0.8055535000021337	2	49	68005.10021	75	0.9534878999984358	2	0
163.79518909999751	0.8032837	1	0	0	0	0	0	0
164.5984727999894	0.8022622000135016	2	49	68006.45205	93.75	0.6964943000057247	1	0
165.4007350000029	0.8159527999960119	2	49	68007.45878	81.25	0.9009545000008075	2	0
166.2166877999989	0.8119944999925792	2	49	68008.28408	81.25	0.9103097999905003	2	0
167.0286822999915	0.8069382	2	0	0	0	0	0	0
167.83562050000182	0.8017465000011725	2	49	68009.47419	68.75	0.4814796999999089	1	0
168.637367	0.8027623	2	49	68010.72705	75	0.9325978999986546	2	0
169.44012929999735	0.8042909999930998	2	49	68011.53412	75	0.9369032999966294	2	0
170.24442029999045	0.8029927000025054	2	49	68012.29441	81.25	0.8929004000092391	2	0
171.04741299999296	0.8071534000046086	2	49	68012.95799	100	0.7534935000003316	1	0
171.85456639999757	0.8026539999991655	2	49	68014.21335	43.75	1.2016950999968685	2	0
172.65722039999673	0.8024302999983774	2	49	68014.82566	68.75	1.0113513999967836	2	0
173.4596506999951	0.7999421999993501	2	49	68015.65215	62.5	1.0354115999944042	2	0
174.25959289999446	0.8019046	2	49	68016.4257	68.75	1.0090187000023434	2	0
175.06149749999167	0.8116510000108974	2	49	68017.12238	81.25	0.9037969000055455	2	0
175.87314850000257	0.8016091999888886	2	49	68017.99749	75	0.9672586999949999	2	0
176.67475769999146	0.7987993	2	49	68018.90138	62.5	1.0695344999985537	2	0
177.47355699999025	0.8043810000090161	2	49	68019.77739	50	1.1467453000077512	2	0
178.27793799999927	0.8026607999927364	2	0	0	0	0	0	0
179.0805988	0.8002487000048859	2	49	68021.05589	93.75	0.8182024999987334	2	0
179.8808474999969	0.8039924000040628	2	49	68021.88958	87.5	0.8516452000039862	2	0
180.68483990000095	0.8083072000008542	2	49	68022.6385	93.75	0.7965734000026714	2	0
181.4931471000018	0.8083673999935854	2	49	68023.63049	68.75	0.9802602999989176	2	0
182.3015144999954	0.7991156000061892	1	0	0	0	0	0	0
183.10063010000158	0.8039762999978848	2	49	68024.92964	87.5	0.6719277999945916	1	0
183.90460639999947	0.8087586000037845	2	49	68025.83662	100	0.7749246	1	0
184.71336500000325	0.8070971999986796	2	49	68026.62356	100	0.7531139999919105	1	0
185.52046220000193	0.8013393000001088	2	49	68027.59972	75	0.9221684999938589	2	0
186.32180150000204	0.8002069999929518	2	49	68028.42383	75	0.944946	2	0
187.1220085	0.8009383000025991	2	49	68029.29882	68.75	1.019721100004972	2	0
187.9229467999976	0.8106933999952162	2	49	68030.04601	75	0.9659754000022076	2	0
188.7336401999928	0.8007328000094276	2	49	68030.77759	81.25	0.8868671000091126	2	0
189.53437300000223	0.8001914	2	49	68031.59783	81.25	0.9063715999945998	2	0
190.33456439999281	0.8035324000084074	2	49	68032.41995	75	0.9283034999971278	2	0
191.13809680000122	0.8137582999916049	1	0	0	0	0	0	0
191.95185509999283	0.8062358000024687	2	49	68033.73879	87.5	0.6298472000053152	1	0
192.7580908999953	0.7980591999948956	2	49	68034.59891	93.75	0.6837286999943899	1	0
193.5561500999902	0.8035650000092573	2	49	68035.31782	81.25	0.6045848000067053	1	0
194.35971509999945	0.8104651000030572	2	49	68036.58206	62.5	1.065261299998383	2	0
195.1701802000025	0.8103406000009272	2	49	68037.38394	62.5	1.0566707999969367	2	0
195.98052080000343	0.7994981	2	0	0	0	0	0	0
196.78001889999723	0.8019434	2	49	68038.70805	100	0.7709438000019873	1	0
197.58196229999885	0.8037981999950716	1	0	0	0	0	0	0
198.38576049999392	0.7995777000032831	2	49	68040.51116	75	0.9683181000000332	2	0
199.1853381999972	0.8050821999931941	1	0	0	0	0	0	0
199.9904203999904	0.8004220000002533	2	49	68042.0512	81.25	0.9036917000048561	2	0
200.79084239999065	0.8060250999988057	1	0	0	0	0	0	0
201.59686749998946	0.8033080000022892	2	49	68043.42888	93.75	0.6749275000038324	1	0
202.40017549999175	0.8018118000036338	2	49	68044.51547	75	0.9582094000070356	2	0
203.20198729999538	0.8017016999947373	2	49	68045.41423	62.5	1.055159299998195	2	0
204.00368899999012	0.8031300000002375	2	49	68046.15795	68.75	0.9971781	2	0
204.80681899999036	0.8107544000085909	2	49	68046.87954	81.25	0.9156349000113551	2	0
205.61757339999895	0.8017870000039693	2	49	68047.7126	75	0.9379404999926919	2	0
206.41936040000292	0.8024955000000773	2	49	68048.56126	68.75	0.9848154999926919	2	0
207.2218559	0.8051214999868535	2	49	68049.33162	75	0.9526744999893708	2	0
208.02697739998985	0.8059988000022713	2	49	68050.13742	75	0.9533610000071349	2	0
208.83297619999212	0.8024928	2	49	68050.93454	75	0.9444739000027766	2	0
209.63546900000074	0.7994124999968335	2	0	0	0	0	0	0
210.43488149999757	0.8138267000031192	2	49	68052.03557	62.5	0.44360579999920446	1	0
211.2487082000007	0.8087174999964191	2	49	68052.92174	68.75	0.5159467999910703	1	0
212.0574256999971	0.8068079999939073	1	49	68053.74945	75	0.5349417	1	0
212.86423369999102	0.8049748000048567	2	49	68054.6546	87.5	0.6332804999983637	1	0
213.66920849999588	0.7988558000070043	2	49	68055.49651	93.75	0.6702166000031866	1	0
214.46806430000288	0.8009237999940524	2	49	68056.33392	93.75	0.7087707999889972	1	0
215.26898809999693	0.8132532000017818	2	49	68057.21061	93.75	0.7845385999971768	2	0
216.0822412999987	0.8043509999988601	2	49	68058.09147	87.5	0.8521392999973614	2	0
216.88659229999757	0.8024179000058211	2	49	68059.14124	56.25	1.0975599999947008	2	0
217.6890102000034	0.8001151999924332	2	49	68059.92459	56.25	1.0784956999996211	2	0
218.48912539999583	0.8082437999983085	2	49	68060.56824	81.25	0.9220337000006111	2	0
219.29736919999414	0.8017995999980485	2	49	68061.35774	81.25	0.9032868000067538	2	0
220.09916879999219	0.8004335000005085	2	49	68062.3267	62.5	1.0704436000087298	2	0
220.8996022999927	0.8052036000008229	2	49	68063.10509	62.5	1.0483988000050886	2	0
221.70480589999352	0.8051773000042886	2	49	68063.81688	75	0.9549848000024213	2	0
222.5099831999978	0.8008684	2	49	68064.62888	75	0.9618138999940129	2	0
223.31085159999202	0.8012247000006028	2	49	68065.3331	87.5	0.8651584000035655	2	0
224.11207629999262	0.8009383000025991	2	49	68066.14094	87.5	0.8717755	2	0
224.91301459999522	0.7982884999946691	2	49	68066.96364	81.25	0.8935351999971317	2	0
225.7113030999899	0.8022335999994539	1	49	68067.75086	81.25	0.8824725000013132	2	0
226.51353669998934	0.8011114000109956	2	49	68068.71194	62.5	1.041315400012536	2	0
227.31464810000034	0.8170952999935253	2	0	0	0	0	0	0
228.13174339999387	0.8092954000021564	2	49	68069.80173	68.75	0.5129042000044137	1	0
228.94103879999602	0.8140346000000136	2	49	68071.03695	75	0.9388252000062494	2	0
229.75507339999604	0.8110114000010071	2	49	68072.01806	56.25	1.1059015000064392	2	0
230.56608479999704	0.8063981000013882	2	0	0	0	0	0	0
231.37248289999843	0.8053669999935664	2	49	68073.34828	93.75	0.8187119	2	0
232.1778499	0.8030197	2	49	68074.53803	43.75	1.203093500007526	2	0
232.98086959999637	0.8067702999978792	2	49	68075.33209	43.75	1.1941343000071356	2	0
233.78763989999425	0.8029766999970889	2	0	0	0	0	0	0
234.59061659999134	0.8124666000076104	2	49	68076.1902	62.5	0.44250170000304934	1	0
235.40308319999895	0.8071453000011388	2	49	68077.39713	87.5	0.8369652999972459	2	0
236.21022850000008	0.8002963999897474	2	49	68078.18944	87.5	0.8221227999893017	2	0
237.01052489998983	0.8028970000013942	2	49	68079.11318	75	0.9455685000139056	2	0
237.81342189999123	0.7998518000094919	2	0	0	0	0	0	0
238.61327370000072	0.8078703999926802	2	49	68080.22932	62.5	0.4589568999945186	1	0
239.4211440999934	0.7997735999961151	2	49	68080.87323	43.75	0.2950020999996923	1	0
240.2209176999895	0.7992671000101836	2	49	68082.06762	93.75	0.6896178	1	0
241.0201847999997	0.8044711999973515	2	49	68082.87336	93.75	0.696086	1	0
241.82465599999705	0.8011002999992343	2	49	68083.86331	81.25	0.8815694999939296	2	0
242.62575629999628	0.8010830999992322	2	49	68084.63112	87.5	0.8482745999936014	2	0
243.42683939999552	0.8008776000060607	2	49	68085.47675	81.25	0.8928235000057612	2	0
244.22771700000158	0.7993557000008877	2	49	68086.5233	50	1.1384931999928085	2	0
245.02707270000246	0.7992169999924954	2	0	0	0	0	0	0
245.82628969999496	0.8033477999997558	2	49	68087.78852	93.75	0.8051445000019157	2	0
246.62963749999471	0.8132777999999234	2	0	0	0	0	0	0
247.44291529999464	0.8053982999990694	2	49	68089.19951	81.25	0.5995058999978937	1	0
248.2483135999937	0.8003186999994796	1	0	0	0	0	0	0
249.0486322999932	0.8016888999991352	1	0	0	0	0	0	0
249.85032119999232	0.8065047	2	49	68091.82618	93.75	0.8187682999996468	2	0
250.6568258999905	0.8006205	2	49	68092.91283	56.25	1.0989142000034917	2	0
251.4574464000034	0.8024433999962639	2	0	0	0	0	0	0
252.25988979999966	0.8016331	2	49	68093.98787	75	0.5708899000019301	1	0
253.0615228999959	0.8063383999979123	2	49	68095.31782	56.25	1.0992153999977745	2	0
253.86786129999382	0.8007646000041859	2	49	68096.15886	50	1.1339178000052925	2	0
254.6686259	0.7989836000051582	2	49	68096.96388	50	1.1381729999993695	2	0
255.46760950000316	0.8025500999938231	2	49	68097.72569	56.25	1.1009986999997636	2	0
256.2701596	0.8061944999935804	2	0	0	0	0	0	0
257.07635409999057	0.7994534000026761	2	49	68098.74707	68.75	0.5136332000110997	1	0
257.87580749999324	0.8001385000097798	2	49	68099.69123	87.5	0.6583328999986406	1	0
258.675946	0.8006944999942789	2	49	68100.76387	75	0.9308411999954842	2	0
259.4766404999973	0.7999172999989241	2	49	68101.74112	56.25	1.1073933000006946	2	0
260.2765577999962	0.8011937999981456	2	0	0	0	0	0	0
261.0777515999944	0.8015513999998802	2	49	68102.66484	62.5	0.4299980000068899	1	0
261.87930299999425	0.7989058999955887	2	49	68103.37114	50	0.3347474000038346	1	0
262.67820889998984	0.7994077000039397	2	49	68104.17609	50	0.3407982000062475	1	0
263.4776165999938	0.8030115000001388	2	49	68105.10609	62.5	0.4713906999968458	1	0
264.2806280999939	0.8033292000036454	2	0	0	0	0	0	0
265.08395729999756	0.7987965999927837	2	49	68106.71907	68.75	0.47802490000321995	1	0
265.88275389999035	0.7997212000045693	2	49	68107.65612	81.25	0.6162786000058986	1	0
266.6824750999949	0.8015376999974251	2	49	68108.81235	68.75	0.9727887000044575	2	0
267.48401279999234	0.8021988999971654	2	49	68109.7282	56.25	1.0870985000074143	2	0
268.2862116999895	0.8028104000113672	2	49	68110.46352	68.75	1.020224000007147	2	0
269.0890221000009	0.8002105999912601	2	49	68111.26148	68.75	1.0153693999891402	2	0
269.88923269999214	0.8006346	2	49	68112.03125	68.75	0.9849302000075113	2	0
270.68986729999597	0.7981159000046318	1	0	0	0	0	0	0
271.4879832000006	0.8038159999996424	2	49	68113.22358	81.25	0.5785120999935316	1	0
272.29179920000024	0.8050767999957316	2	49	68114.22286	93.75	0.7739717999938875	2	0
273.096876	0.7997546999977203	2	49	68115.16673	81.25	0.9127672000031453	2	0
273.8966306999937	0.7989586000039708	2	49	68116.12632	56.25	1.0726075999991735	2	0
274.69558929999766	0.8011909000051674	2	0	0	0	0	0	0
275.49678020000283	0.8038932999916142	2	49	68117.11364	62.5	0.4597788999963086	1	0
276.30067349999445	0.8009077000024263	2	49	68117.92152	62.5	0.46376210000016727	1	0
277.1015811999969	0.8028798000013921	2	49	68119.28262	62.5	1.023949	2	0
277.90446099999826	0.8087426999991294	2	0	0	0	0	0	0
278.7132036999974	0.8153729000041494	2	49	68120.71363	87.5	0.8433377000037581	2	0
279.52857660000154	0.8092999999935273	2	49	68121.70834	68.75	1.0226742999948328	2	0
280.33787659999507	0.8080353999976069	2	49	68122.5804	56.25	1.0854409000021406	2	0
281.1459119999927	0.8015375999966636	2	49	68123.46677	50	1.1637753999966662	2	0
281.94744959998934	0.7992952000058722	1	0	0	0	0	0	0
282.7467447999952	0.8146269999997457	2	49	68124.87927	75	0.9754431000037584	2	0
283.56137179999496	0.8105864999961341	2	49	68125.60199	87.5	0.8835313000017777	2	0
284.3719582999911	0.8148434000031557	2	49	68126.59174	62.5	1.0626998000079766	2	0
285.18680169999425	0.8091501	2	49	68127.41505	62.5	1.0711640000081388	2	0
285.99595179999596	0.7986285	2	0	0	0	0	0	0
286.7945802999893	0.8017080000136048	2	49	68128.59887	87.5	0.6472076	1	0
287.5962883000029	0.7998956999945221	2	0	0	0	0	0	0
288.39618399999745	0.8027332999918144	2	49	68130.13914	81.25	0.5858697999938158	1	0
289.19891729998926	0.8007495000056224	2	49	68131.4193	62.5	1.0632956000044942	2	0
289.9996667999949	0.8009696000081021	2	49	68132.22606	62.5	1.0693055000010645	2	0
290.8006364	0.8127237999869976	2	49	68133.14115	50	1.183424599992577	2	0
291.6133602	0.7997751000075368	2	0	0	0	0	0	0
292.4131352999975	0.7997818000003463	2	49	68134.2381	87.5	0.6678794	1	0
293.21291709999787	0.8041088	2	49	68135.03801	87.5	0.668005	1	0
294.0170259000006	0.8086392999975942	2	49	68135.85132	93.75	0.6772038999915821	1	0
294.8256651999982	0.8002869000047212	2	49	68136.80438	93.75	0.8216252999991411	2	0
295.6259521000029	0.8018597999907797	2	49	68137.50708	100	0.7240392999956384	1	0
296.4278118999937	0.8031276999972761	2	49	68138.40152	93.75	0.8166205000015907	2	0
297.23093959999096	0.8108594000077574	1	0	0	0	0	0	0
298.0417989999987	0.8029678000020795	2	49	68140.07608	81.25	0.8771982000034768	2	0
298.8447668000008	0.7992502	2	49	68140.98126	68.75	0.9794098999991547	2	0
299.6440169999987	0.8012942999921506	2	49	68141.59125	93.75	0.7901463	2	0
300.44531129999086	0.8066035000083502	2	49	68142.32836	93.75	0.7259660000127042	1	0
301.2519147999992	0.7992987000034191	2	49	68143.17756	100	0.7685637	1	0
302.05121350000263	0.7994391999964137	1	0	0	0	0	0	0
302.85065269999905	0.8016446999972686	2	49	68144.74681	100	0.7390714999928605	1	0
303.6522973999963	0.8038668999943184	2	49	68145.58549	93.75	0.7761033999995561	2	0
304.45616429999063	0.8001456000056351	2	49	68146.48315	87.5	0.8698962000053143	2	0
305.25630989999627	0.7999869000050239	2	49	68147.40261	68.75	0.9892139000003226	2	0
306.0562968000013	0.8041947999881813	2	49	68148.24332	62.5	1.029939200001536	2	0
306.8604915999895	0.8007057000068016	2	0	0	0	0	0	0
307.6611972999963	0.7995894000050612	1	49	68149.40064	81.25	0.5823556999966968	1	0
308.46078670000134	0.8023704999941401	2	49	68150.6628	62.5	1.0449249999946915	2	0
309.2631571999955	0.8069908000034047	2	49	68151.25558	87.5	0.8353389999974752	2	0
310.0701479999989	0.8007047999999486	2	49	68152.06948	87.5	0.8422420999995666	2	0
310.87085279999883	0.7985616999940248	2	49	68152.74765	93.75	0.7197067999950377	1	0
311.66941449999285	0.8007286000065506	2	49	68153.60251	93.75	0.7760067000053823	2	0
312.4701430999994	0.8024123999930453	2	0	0	0	0	0	0
313.27255549999245	0.8011795000056736	2	49	68155.10752	93.75	0.677878	1	0
314.0737349999981	0.8060506000038004	2	49	68156.45676	43.75	1.2259409999969648	2	0
314.8797856000019	0.8163874999881955	2	49	68157.00084	75	0.9639695999940159	2	0
315.6961730999901	0.7995532000059029	2	49	68157.86186	68.75	1.0086022000032244	2	0
316.4957263	0.8008014999941224	1	0	0	0	0	0	0
317.29652779999014	0.7995217000134289	1	0	0	0	0	0	0
318.0960495000036	0.8077249999914784	2	49	68160.15472	81.25	0.9015837999904761	2	0
318.90377449999505	0.8153658999945037	2	49	68161.05789	68.75	0.9970322000008309	2	0
319.71914039998956	0.8026256000011927	2	49	68161.90571	62.5	1.0294866000040201	2	0
320.52176599999075	0.7997886000084691	2	0	0	0	0	0	0
321.3215545999992	0.8045687999983784	2	49	68163.64834	50	1.169697699995595	2	0
322.1261233999976	0.8028236999962246	1	0	0	0	0	0	0
322.9289470999938	0.8011900999990758	2	49	68165.01389	75	0.9278599000099348	2	0
323.7301371999929	0.8000079000048572	2	49	68165.77366	81.25	0.8864407000073697	2	0
324.53014509999775	0.8074039000057383	2	49	68166.62194	75	0.9347091999952681	2	0
325.3375490000035	0.8023691999987932	2	49	68167.20324	93.75	0.7086026999895694	1	0
326.1399182000023	0.8034642	1	49	68168.24525	75	0.9482474999967963	2	0
326.9433824000007	0.8037562	2	49	68169.17891	56.25	1.0784375999937765	2	0
327.7471385999961	0.7984422000008635	2	0	0	0	0	0	0
328.54558079999697	0.7989165000035428	2	49	68170.2572	75	0.5545381999982055	1	0
329.3444973000005	0.8012930999975652	2	0	0	0	0	0	0
330.1457903999981	0.8024315999937244	2	0	0	0	0	0	0
330.9482219999918	0.8170205000060378	2	0	0	0	0	0	0
331.76524249999784	0.8121015999931842	2	49	68173.53635	81.25	0.6140223999973387	1	0
332.5773441	0.7979812000121456	2	49	68174.09359	50	0.3591583000088576	1	0
333.37532530000317	0.8003650999889942	2	49	68174.83512	43.75	0.30270859999291133	1	0
334.17569039999216	0.7990253000025405	2	49	68175.77408	62.5	0.4412993000005372	1	0
334.9747156999947	0.8072227999946335	1	49	68176.83125	93.75	0.6994473999948241	1	0
335.78193849998934	0.8046399	2	49	68177.74738	93.75	0.8083518000057666	2	0
336.5865783999907	0.8000889000104507	1	0	0	0	0	0	0
337.38666730000114	0.8014275999885285	2	49	68179.23266	93.75	0.6889104	1	0
338.18809489998966	0.8005383	2	49	68180.09564	100	0.7504549000004772	1	0
338.98863320000237	0.8033811	2	49	68181.42056	37.5	1.2748366999876453	2	0
339.79201429999375	0.8005559000011999	1	0	0	0	0	0	0
340.59257019999495	0.8070147999969777	2	49	68183.02366	37.5	1.2740024999948218	2	0
341.39958499999193	0.8104327000037301	2	49	68183.57064	68.75	1.0139726000052178	2	0
342.21001769999566	0.801567	2	49	68184.51103	50	1.143928200006485	2	0
343.0115846999979	0.7999742999963928	2	0	0	0	0	0	0
343.8115589999943	0.8006312000070466	1	49	68185.59655	87.5	0.6279041	1	0
344.61219020000135	0.8063559000001987	2	49	68186.56585	93.75	0.7965729999996256	2	0
345.41854610000155	0.7987806000019191	2	49	68187.36862	93.75	0.7929876999987755	2	0
346.21732670000347	0.8018551999994088	2	49	68188.541	50	1.1665871999866795	2	0
347.0191819000029	0.8034584999986691	2	49	68189.33186	50	1.1555929999885848	2	0
347.82264040000155	0.8001734999998007	2	49	68189.98566	68.75	1.0059292999940226	2	0
348.62281390000135	0.8023455999937141	2	49	68190.6356	87.5	0.8557035999983782	2	0
349.42515949999506	0.8028917000046931	1	0	0	0	0	0	0
350.22805119999975	0.8100360999960685	2	49	68191.83887	62.5	0.45373660000041127	1	0
351.0380872999958	0.8000343	1	0	0	0	0	0	0
351.8381216	0.8015527999959886	2	49	68193.86489	87.5	0.8696781000035116	2	0
352.63967439999396	0.7994385000056354	2	49	68194.61378	93.75	0.8170245000073919	2	0
353.4391128999996	0.8214433999964967	2	49	68195.73605	56.25	1.1398545999982161	2	0
354.2605562999961	0.8020657	2	49	68196.4919	62.5	1.0742568999994546	2	0
355.06262199999765	0.8033646999974735	2	0	0	0	0	0	0
355.8659866999951	0.8025761	2	49	68198.04284	68.75	1.019766700002947	2	0
356.66856279999774	0.7990033999958541	2	49	68198.7136	81.25	0.8879480000032345	2	0
357.4675661999936	0.8038737000024412	2	0	0	0	0	0	0
358.27143989999604	0.8015824000030989	2	49	68200.25695	87.5	0.8284198000037577	2	0
359.07302229999914	0.8083571000024676	2	0	0	0	0	0	0
359.8813794000016	0.8057111999951303	2	49	68201.6103	75	0.5718340000021271	1	0
360.68709059999674	0.8005388000019593	2	49	68202.81741	68.75	0.9732366999960504	2	0
361.4876293999987	0.8002999000018463	2	49	68203.61621	75	0.9714903999993112	2	0
362.28792930000054	0.8038878999941517	2	49	68204.66514	43.75	1.2201258999994025	2	0
363.0918171999947	0.8008206999948015	2	0	0	0	0	0	0
363.8926378999895	0.8034719000133919	2	49	68205.93433	81.25	0.8846052000008058	2	0
364.6961098000029	0.8053356	2	49	68206.93437	56.25	1.0811790000007022	2	0
365.5014453999902	0.8072385000123177	2	0	0	0	0	0	0
366.3086839000025	0.8030973999993876	2	0	0	0	0	0	0
367.1117813000019	0.8011715999891749	2	49	68208.89528	87.5	0.6264134999946691	1	0
367.91295289999107	0.8038301000051433	2	49	68209.6987	87.5	0.6286577999999281	1	0
368.7167829999962	0.8008832000050461	2	49	68210.58768	93.75	0.7138162000046577	1	0
369.51766620000126	0.7985775999986799	2	49	68211.75342	56.25	1.0786652999959188	2	0
370.31624379999994	0.8067335999949137	2	49	68212.58052	56.25	1.1071908000012627	2	0
371.12297739999485	0.8193119000061415	2	0	0	0	0	0	0
371.9422893	0.8089361	2	49	68213.66875	75	0.5693726999888895	1	0
372.7512254	0.8002212999999756	1	49	68214.90324	68.75	0.9949263	2	0
373.5514467	0.8011253999866312	2	0	0	0	0	0	0
374.35257209998963	0.8013116	2	49	68216.28653	93.75	0.7768725000059931	2	0
375.1538836999971	0.8103160000027856	1	0	0	0	0	0	0
375.9641996999999	0.8044706999935443	2	49	68218.30256	43.75	1.181276399991475	2	0
376.7686703999934	0.8023487000027671	2	0	0	0	0	0	0
377.5710190999962	0.8014766999986023	2	49	68219.70147	75	0.9733631999988575	2	0
378.3724957999948	0.8121163000032539	2	0	0	0	0	0	0
379.18461209999805	0.8009971999999834	2	49	68221.39376	62.5	1.0520624999917345	2	0
379.98560929999803	0.8016871	2	49	68222.00622	87.5	0.8635247000056552	2	0
380.7872964	0.7981844000023557	2	49	68222.81127	87.5	0.8668853999988642	2	0
381.58548080000037	0.8034921999933431	2	49	68223.65323	81.25	0.9106674999929965	2	0
382.3889729999937	0.8045805000001565	2	49	68224.56129	68.75	1.0152297000022372	2	0
383.19355349999387	0.8003848000080325	2	49	68225.5387	43.75	1.1880576999974437	2	0
383.9939383000019	0.8041716	2	49	68226.30404	50	1.1530125999997836	2	0
384.7981099000026	0.8071995999926003	1	0	0	0	0	0	0
385.6053094999952	0.8045450000063283	2	49	68227.85841	56.25	1.0960104999976465	2	0
386.40985450000153	0.8034642	2	49	68228.53229	75	0.9653544999891892	2	0
387.21331869999995	0.8022989000019152	2	49	68229.35098	68.75	0.9805724999896483	2	0
388.01561760000186	0.8152817999944091	2	0	0	0	0	0	0
388.83089939999627	0.8018819999997504	2	0	0	0	0	0	0
389.6327814	0.8006859000015538	1	49	68231.36343	81.25	0.5735611999989487	1	0
390.4334672999976	0.8006806000048527	2	49	68232.5587	75	0.9681459999992512	2	0
391.2341479000024	0.8168402000010246	2	49	68233.52658	56.25	1.1353416999918409	2	0
392.05098810000345	0.8041904999990948	2	49	68234.29601	56.25	1.0879315999918617	2	0
392.85517860000255	0.8020799999940209	2	49	68235.15517	50	1.1429061999951955	2	0
393.65725859999657	0.8008277000044473	2	49	68235.85166	62.5	1.0373185000062222	2	0
394.4580863	0.8032963000005111	2	49	68236.6421	62.5	1.0269231999991462	2	0
395.2613826000015	0.7988650999905076	2	49	68237.44207	62.5	1.0236044999910519	2	0
396.06024769999203	0.7982521000085399	2	0	0	0	0	0	0
396.8584998000006	0.8020476999954553	2	49	68238.4818	62.5	0.46621159999631345	1	0
397.6605475	0.8046872999984771	2	49	68239.25577	62.5	0.43813549999322277	1	0
398.4652347999945	0.8007389999984298	1	49	68240.40739	93.75	0.7850650000036694	2	0
399.26597379999293	0.8037091000005603	2	49	68241.64347	43.75	1.2204131000034977	2	0
400.0696828999935	0.8067227999999886	2	0	0	0	0	0	0
400.8764056999935	0.8140845	2	49	68242.60978	75	0.5762912000063807	1	0
401.6904901999951	0.8170472000056179	2	0	0	0	0	0	0
402.50753740000073	0.8148643000022275	2	49	68244.2793	81.25	0.6146752999920864	1	0
403.32240170000296	0.7995986	2	49	68245.01962	75	0.5401333999907365	1	0
404.12200029999076	0.8015745	2	49	68245.9085	87.5	0.6294177000090713	1	0
404.9235747999919	0.8037758	1	49	68246.7898	93.75	0.7091395000024932	1	0
405.72735059999104	0.8152475000097184	2	49	68247.46648	75	0.5820457	1	0
406.54259810000076	0.8018182999949204	2	49	68248.70057	68.75	1.000891199990292	2	0
407.3444163999957	0.8045782999979565	2	49	68249.31157	93.75	0.8100721999944653	2	0
408.14899469999364	0.8010080999956699	1	0	0	0	0	0	0
408.9500027999893	0.8088791000045603	2	49	68250.76876	87.5	0.6616668000060599	1	0
409.75888189999387	0.8038206000055652	2	49	68251.72379	93.75	0.8078234999993583	2	0
410.56270249999943	0.8002796999935526	2	49	68252.65651	75	0.9367236999969464	2	0
411.3629822	0.8096758000028785	2	49	68253.57373	62.5	1.053664300008677	2	0
412.17265799999586	0.8153358999988995	1	0	0	0	0	0	0
412.98799389999476	0.8067015	2	49	68254.73948	81.25	0.5943973999965237	1	0
413.79469539999263	0.8013091000029817	2	49	68255.95774	68.75	1.0059550000005402	2	0
414.5960044999956	0.8069255000009434	1	0	0	0	0	0	0
415.40292999999656	0.8056643000018084	2	0	0	0	0	0	0
416.20859429999837	0.8041973999934271	2	49	68257.85	68.75	0.48432279999542516	1	0
417.0127916999918	0.8022588000021642	2	49	68258.79513	87.5	0.6252563	1	0
417.81505049999396	0.8024287000007462	1	49	68259.81023	87.5	0.8380987999989884	2	0
418.6174791999947	0.8173093000077643	2	49	68261.00891	43.75	1.2343428000021959	2	0
419.43478850000247	0.8102502999972785	2	0	0	0	0	0	0
420.24503879999975	0.8009871999965981	2	49	68262.13314	100	0.7310109999962151	1	0
421.04602599999635	0.8022157999948831	2	49	68263.1841	68.75	0.9809877999941818	2	0
421.84824179999123	0.8015499000030104	2	49	68263.9194	81.25	0.9140773000108311	2	0
422.64979169999424	0.8144915000011679	2	49	68264.63065	93.75	0.8237762000062503	2	0
423.4642831999954	0.8151830999995582	2	49	68265.55515	81.25	0.9337840999942273	2	0
424.27946629999497	0.8087319000042044	2	49	68266.58091	50	1.1443560000043362	2	0
425.08819819999917	0.8055713999929139	2	49	68267.37909	50	1.1338055999949574	2	0
425.8937695999921	0.8019201999995857	1	0	0	0	0	0	0
426.69568979999167	0.8018147	2	49	68268.54444	93.75	0.6916671000071801	1	0
427.49750450000283	0.8051620999904117	2	49	68269.86034	43.75	1.2057495999906678	2	0
428.30266659999324	0.8117912000016076	2	0	0	0	0	0	0
429.11445779999485	0.8012014999985695	2	49	68270.88678	81.25	0.6152327000017976	1	0
429.9156592999934	0.7978825000027427	2	49	68271.73394	87.5	0.6611913000087952	1	0
430.71354179999616	0.8034011999989161	2	49	68272.5013	87.5	0.6306725000031292	1	0
431.5169429999951	0.8014403999986826	2	49	68273.33834	87.5	0.6643152000033297	1	0
432.31838339999376	0.8025965999986511	1	0	0	0	0	0	0
433.1209799999924	0.8037309000064852	2	49	68275.21136	75	0.9332982000050833	2	0
433.9247108999989	0.8053049000009196	1	0	0	0	0	0	0
434.7300157999998	0.8028743000031682	2	49	68277.03644	50	1.1493411999981618	2	0
435.5328901	0.8029390999872703	2	0	0	0	0	0	0
436.33582919999026	0.7994369000080042	2	49	68278.02898	75	0.5360683000035351	1	0
437.13526609999826	0.8142082999984268	2	49	68279.40932	56.25	1.1169697000004817	2	0
437.9494743999967	0.8034458000038285	2	0	0	0	0	0	0
438.7529202000005	0.7982896999892546	2	0	0	0	0	0	0
439.5512098999898	0.8015962000063155	2	0	0	0	0	0	0
440.3528060999961	0.8067352000070969	2	49	68282.26875	100	0.7588569000072312	1	0
441.1595413000032	0.7990805999870645	2	49	68282.97619	87.5	0.6595631	1	0
441.95862189999025	0.8009476000006543	2	49	68284.10312	68.75	0.9874155	2	0
442.7595694999909	0.8002571	2	49	68284.95932	62.5	1.0426606000110041	2	0
443.55982660000154	0.8023925999877974	1	0	0	0	0	0	0
444.36221919998934	0.8040394	2	49	68286.34122	93.75	0.8219166000053519	2	0
445.16625860000204	0.8009943999932148	2	0	0	0	0	0	0
445.96725299999525	0.8149446000024909	2	0	0	0	0	0	0
446.78219759999774	0.8007894000038505	2	0	0	0	0	0	0
447.5829870000016	0.8030857999983709	2	49	68289.33853	81.25	0.5984581999946386	1	0
448.38607279999997	0.8024825000029523	2	49	68290.02902	68.75	0.4858641000028001	1	0
449.1885553000029	0.8094056999980239	2	49	68290.91703	75	0.5713869999890449	1	0
449.99796100000094	0.8022513999894727	2	0	0	0	0	0	0
450.8002123999904	0.8029581000009784	1	0	0	0	0	0	0
451.6031704999914	0.8002172999986215	2	0	0	0	0	0	0
452.4033878	0.7987397000106284	2	0	0	0	0	0	0
453.20212750000064	0.8026816999918083	2	0	0	0	0	0	0
454.00480919999245	0.8011620000033872	2	0	0	0	0	0	0
454.80597119999584	0.8026094999950146	2	49	68296.55528	81.25	0.592227	1	0
455.60858069999085	0.7989213000109885	2	49	68297.12938	50	0.3637151000002632	1	0
456.40750200000184	0.8015905999927782	2	49	68298.54902	68.75	0.9844352999934927	2	0
457.2090925999946	0.8024215000041295	2	49	68299.07531	93.75	0.7091293999983463	1	0
458.01151409999875	0.8023679000034463	2	49	68299.80435	87.5	0.6357496999989962	1	0
458.8138820000022	0.7997690999909537	2	49	68300.51839	75	0.5474211999971885	1	0
459.61365109999315	0.8024248000001535	1	49	68301.23801	62.5	0.46727259999897797	1	0
460.4160758999933	0.7994181000103708	1	0	0	0	0	0	0
461.2154940000037	0.8027645	2	49	68303.20723	87.5	0.8346495999867329	2	0
462.01825850000023	0.8029152999952203	2	49	68304.3093	50	1.1339552999997977	2	0
462.82117379999545	0.8133681000035722	2	0	0	0	0	0	0
463.6345419	0.8093737000017427	2	49	68305.48737	93.75	0.6957406000001356	1	0
464.44391560000076	0.7995513999921968	2	0	0	0	0	0	0
465.24346699999296	0.8021567000105279	2	0	0	0	0	0	0
466.0456237000035	0.8010145999869565	1	0	0	0	0	0	0
466.84663829999045	0.8173986000037985	2	49	68309.00543	68.75	1.0017056000069715	2	0
467.66403689999424	0.8057258000044385	2	49	68309.64444	93.75	0.8233166999998502	2	0
468.4697626999987	0.8004748999956064	2	49	68310.34371	93.75	0.7168617999996059	1	0
469.2702375999943	0.7993110999959754	2	49	68311.0886	87.5	0.6612749000050826	1	0
470.06954869999026	0.8018832000088878	2	49	68312.10354	81.25	0.8769024000066565	2	0
470.87143189999915	0.8134163999930024	2	0	0	0	0	0	0
471.68484829999215	0.8035813000024064	2	49	68313.49334	87.5	0.6514097	1	0
472.48842959999456	0.8014326999982586	2	49	68314.50096	87.5	0.8554456999991089	2	0
473.2898622999928	0.8015022	2	49	68315.31001	87.5	0.8630650999984937	2	0
474.0913644999964	0.8006333999946946	2	49	68316.14163	81.25	0.8931826000043657	2	0
474.8919978999911	0.8036347000015667	1	0	0	0	0	0	0
475.6956325999927	0.8029900000110501	2	49	68317.89879	62.5	1.046074400001089	2	0
476.4986226000037	0.8029974999953993	2	49	68318.49597	87.5	0.8402655999962008	2	0
477.3016200999991	0.8056321000040043	2	49	68319.33286	87.5	0.8741515000001527	2	0
478.10725220000313	0.8128665999975055	2	49	68320.34062	62.5	1.076283299989882	2	0
478.92011880000064	0.8042242999945302	2	49	68321.19453	56.25	1.1173281999945175	2	0
479.72434309999517	0.8014966000046115	2	49	68321.91281	62.5	1.0313810000079684	2	0
480.5258396999998	0.7997274999943329	2	49	68322.79703	56.25	1.1141076999920188	2	0
481.3255671999941	0.8102817000035429	2	49	68323.54812	62.5	1.065463400009321	2	0
482.13584889999765	0.7992496999941068	2	49	68324.39398	56.25	1.1010424999985844	2	0
482.93509859999176	0.7994177	2	49	68325.2948	43.75	1.202614400011953	2	0
483.7345162999991	0.8022902999946382	2	0	0	0	0	0	0
484.5368065999937	0.8148652000090806	2	49	68326.24154	75	0.5476485999970464	1	0
485.3516718000028	0.8049953999870922	1	49	68327.17447	87.5	0.6657153999985894	1	0
486.1566671999899	0.8029839000082575	2	0	0	0	0	0	0
486.95965109999815	0.8025124999985565	2	49	68328.55122	62.5	0.4344868000043789	1	0
487.7621635999967	0.8007226000045193	2	49	68329.70013	93.75	0.7808817000041017	2	0
488.56288620000123	0.8136001	2	49	68330.46691	100	0.7469335999921896	1	0
489.37648629999603	0.8036273000034271	2	49	68331.46197	75	0.9283942000038223	2	0
490.18011359999946	0.8012846999918111	2	49	68332.28236	75	0.9451569999946514	2	0
490.98139829999127	0.8014523000019835	2	49	68333.15222	68.75	1.0137334000028204	2	0
491.78285059999325	0.8069188	2	49	68334.01147	62.5	1.0715314999979455	2	0
492.5897694000014	0.8072322999942116	1	0	0	0	0	0	0
493.3970016999956	0.8033811000059359	2	49	68335.38321	87.5	0.8291209000017261	2	0
494.20038280000153	0.8011701999930665	2	49	68336.1745	93.75	0.8170355999900494	2	0
495.0015529999946	0.8048088000068674	2	49	68337.15635	68.75	0.9977109000028577	2	0
495.80636180000147	0.7996689999999944	2	49	68337.84734	81.25	0.8838943000009749	2	0
496.60603080000146	0.8013279	2	49	68338.89676	50	1.1336469999951078	2	0
497.4073587000021	0.8054734999896027	2	49	68339.62137	62.5	1.0569217000011122	2	0
498.2128321999917	0.8256489000050351	2	49	68340.37342	68.75	1.0034988000115845	2	0
499.0384810999967	0.8015601999941282	2	49	68341.01511	93.75	0.8195448000042234	2	0
499.84004129999084	0.803343	2	49	68342.13448	50	1.1373482000053627	2	0
500.6433842999977	0.8004342999920482	2	49	68342.87361	56.25	1.0731359999917913	2	0
501.44381859998975	n/a	0	0	0	0	0	0	0