onset	duration	offset	trial	item	RT	response
48.5134	4.0406709999952	52.5540709999952	1	att	2.23880169999029	9.0
52.5544116999992	3.1656976999947943	55.720109399993994	1	past	1.65969109999423	9.0
55.7202766999874	3.3258345000066925	59.046111199994094	1	fut	1.94255730000441	1.0
59.0462971999989	4.839702299999701	63.8859994999986	1	self	2.02185209999152	9.0
63.8861513999911	2.8107491999980994	66.69690059998919	1	ppl	0.858579499996267	6.0
66.69759349999751	4.104116199989193	70.8017096999867	1	arou	2.17962959999568	6.0
70.8020490999954	2.821408999996507	73.62345809999191	1	aff	1.56596540000464	7.0
73.623742	4.0222764999926	77.64601849999259	1	eng	3.17937889999303	6.0
77.64623579998829	3.3734401000109955	81.01967589999929	1	mvmt	2.46682630000578	7.0
81.0198645999956	3.300906299991709	84.32077089998731	1	delib	2.09715239999059	9.0
84.32092349999971	2.6980837999872023	87.01900729998691	1	image	1.39740949998668	9.0
87.019205599998	2.5183585999914015	89.5375641999894	1	ling	0.815735399999539	1.0
89.53788179999239	2.475988000005003	92.0138697999974	1	conf	1.37046469999768	8.0
142.8453391999974	6.452778799997986	149.29811799999538	2	att	2.05179009999847	7.0
149.29841079999838	3.0509056999870268	152.3493164999854	2	past	1.79666339998948	1.0
152.3495196999904	3.06579619999701	155.4153158999874	2	fut	1.20725690000108	9.0
155.4155520999964	2.583232199990988	157.9987842999874	2	self	1.51472989999456	9.0
157.9989832999894	2.0487483000030124	160.0477315999924	2	ppl	0.692264900004375	1.0
160.04807269999938	4.042887599994003	164.09096029999338	2	arou	2.53191479999805	5.0
164.0911520999984	4.16064659999401	168.2517986999924	2	aff	2.3046156999917	3.0
168.25204109998938	4.191828600000008	172.4438696999894	2	eng	1.32994019999751	5.0
172.44405759999438	4.296529400002015	176.7405869999964	2	mvmt	1.53988389999722	3.0
176.7407979999884	4.3777676000020165	181.1185655999904	2	delib	1.61679720001121	4.0
181.1187452999914	2.730655599996993	183.84940089998838	2	image	1.62589680000383	9.0
183.8496161999974	2.5337264999979823	186.38334269999538	2	ling	1.22965779999504	1.0
186.3835731999904	2.528735900006012	188.9123090999964	2	conf	1.54616600000008	7.0
243.7560224999944	12.011116699999974	255.76713919999438	3	att	1.52546119999897	6.0
255.7672887999984	3.084678799990968	258.8519675999894	3	past	1.06964279999374	1.0
258.8521619999994	3.048579299997016	261.9007412999964	3	fut	1.5063009000005	9.0
261.90098969999644	3.119670999992991	265.02066069998943	3	self	1.52771650000068	9.0
265.0209348999964	2.7539659000030383	267.77490079999944	3	ppl	1.9165992999915	6.0
267.7750755999914	4.503054400004032	272.27812999999543	3	arou	1.82334980000451	3.0
272.27832039999043	2.1494432000029633	274.4277635999934	3	aff	1.17781720000494	5.0
274.4279715999914	4.939530700008049	279.36750229999944	3	eng	2.40918400000373	1.0
279.36771799999843	2.310956100000965	281.6786740999994	3	mvmt	1.16302179999184	8.0
281.6788338999944	2.897393099992996	284.5762269999874	3	delib	1.30172469999525	1.0
284.57647529998644	2.3630365999989635	286.9395118999854	3	image	1.26889230000961	9.0
286.9397254999974	1.8573385999910101	288.7970640999884	3	ling	0.853949800002738	6.0
288.7972620999974	2.2454756999940173	291.0427377999914	3	conf	1.19064020000224	7.0
344.9554359999934	2.499068200005979	347.4545041999994	4	att	1.27949739999895	9.0
347.4547227999904	3.9508406999960357	351.40556349998644	4	past	0.903288200002862	7.0
351.4057721999894	2.9053393000060055	354.31111149999543	4	fut	1.26524120000249	1.0
354.31128029998644	3.155744400005972	357.4670246999924	4	self	1.15520880000258	3.0
357.4672253999924	2.1259019999999964	359.5931273999924	4	ppl	0.895526299995254	8.0
359.5932891999874	3.6073661000120296	363.2006552999994	4	arou	1.18770720000612	8.0
363.2008835999914	2.822944000000007	366.0238275999914	4	aff	1.14485749999585	2.0
366.02403459999545	2.843087799992986	368.86712239998843	4	eng	1.27819589999854	7.0
368.86734099999444	1.991132800000969	370.8584737999954	4	mvmt	0.839828299998771	8.0
370.8586960999854	2.2797481000019957	373.1384441999874	4	delib	1.04389900001115	1.0
373.1386682999914	2.447582599997986	375.5862508999894	4	image	1.31392909999704	9.0
375.5864686999884	3.310856099997011	378.8973247999854	4	ling	1.11670910000976	1.0
378.8975390999874	2.3107140000070103	381.2082530999944	4	conf	1.14580650000426	9.0
443.06351609999945	3.2861686999969493	446.3496847999964	5	att	1.77804099999776	9.0
446.35039779999744	4.15123069999396	450.5016284999914	5	past	1.29791949999344	9.0
450.50258139998544	4.827382300005979	455.3299636999914	5	fut	2.30649390000326	1.0
455.3305517999874	2.748729200000014	458.0792809999874	5	self	1.18252750000102	9.0
458.0801719999914	1.6678110000059974	459.7479829999974	5	ppl	0.56351390000782	1.0
459.74869719999344	3.278156100000956	463.0268532999944	5	arou	1.18253629999526	7.0
463.0278212999874	2.55535920000699	465.5831804999944	5	aff	1.16333140000643	1.0
465.5837983999994	3.217983499999036	468.80178189999845	5	eng	1.43115959998977	9.0
468.80275479999943	4.4171337000009885	473.2198885000004	5	mvmt	1.42890899999475	1.0
473.22058589999943	3.806462599996962	477.0270484999964	5	delib	2.69007879999117	7.0
477.0277413999904	2.23987839999603	479.26761979998645	5	image	1.07313790000626	9.0
479.26931589999344	2.606926299995962	481.8762421999894	5	ling	1.07491260000097	1.0
481.8769867999984	2.4371975999970346	484.31418439999544	5	conf	1.11043599998811	9.0
541.1653398999954	3.202183000001014	544.3675228999964	6	att	1.63480970000091	9.0
544.3679229999874	5.22630540000705	549.5942283999944	6	past	1.26270840001234	1.0
549.5942486999884	2.264252499998065	551.8585011999864	6	fut	1.0212795999978	9.0
551.8585255999974	3.780793500002005	555.6393190999994	6	self	1.42129129999375	9.0
555.6393489999934	3.597313000006011	559.2366619999995	6	ppl	1.09369290000177	3.0
559.2366813999874	2.6666899000119884	561.9033712999994	6	arou	1.68967770000745	1.0
561.9033983999874	2.212132700006009	564.1155310999934	6	aff	1.59361060000083	5.0
564.1155586999994	2.7212014999970506	566.8367601999964	6	eng	1.71445159999712	1.0
566.8367848999955	2.596206799992956	569.4329916999884	6	mvmt	1.21754099999089	9.0
569.4330250999955	2.75605179999593	572.1890768999914	6	delib	1.56936329999007	4.0
572.1890918999894	3.0765980999999556	575.2656899999894	6	image	0.820223200003966	9.0
575.2657085999854	2.5065410000100883	577.7722495999955	6	ling	1.2661347000103	1.0
577.7722983999885	2.614479800001959	580.3867781999904	6	conf	1.24200320000818	9.0
