onset	duration	cue	constant1	timestamp	stimulus_coherence	response_time	response	constant2
20.650110417351243	0.8125864	2	49	91787.52941	81.25	0.9368792	2	0
21.46269682	0.8178484000090975	2	49	91788.12473	93.75	0.7196117999992566	1	0
22.280545217363397	0.8136865999986185	2	49	91788.80426	75	0.5812958999886177	1	0
23.094231817362015	0.8204127999924822	2	49	91789.7226	87.5	0.6859415999933844	1	0
23.914644617354497	0.8119108000100823	2	49	91790.63952	93.75	0.7824567000061506	2	0
24.72655541736458	0.8213573	2	49	91791.35295	87.5	0.6839730999927269	1	0
25.547912717360305	0.8213644999923417	2	49	91792.0707	75	0.5803668000007747	1	0
26.369277217352646	0.8059066	2	49	91792.99652	93.75	0.6848209	1	0
27.175183817351353	0.8189742000104161	2	49	91793.8075	93.75	0.6898934000055306	1	0
27.99415801736177	0.8162516000011237	2	49	91794.65981	93.75	0.7232334000000264	1	0
28.810409617362893	0.8166807999950834	2	49	91795.51571	100	0.7628791000024648	1	0
29.627090417357977	0.8161550000077114	2	49	91796.37882	93.75	0.8093088000023272	2	0
30.443245417365688	0.8159247999865329	2	49	91797.27398	87.5	0.8883075999910943	2	0
31.25917021735222	0.8172921000077622	2	49	91797.97778	100	0.7761820000014268	1	0
32.07646231735998	0.8122905000054743	2	49	91798.76875	100	0.7498626000015065	1	0
32.88875281736546	0.8256266999960644	2	49	91799.53669	93.75	0.7055185999925015	1	0
33.71437951736152	0.8215290999942226	2	49	91800.25666	81.25	0.5998561000014888	1	0
34.535908617355744	0.8119175000028918	1	49	91801.01283	75	0.5344975000043632	1	0
35.347826117358636	0.8154978999955347	2	49	91802.08078	93.75	0.7905315999960294	2	0
36.16332401735417	0.8130907000013394	2	49	91802.8262	93.75	0.7204510000010487	1	0
36.97641471735551	0.8111583999998402	2	49	91803.84131	81.25	0.9224761000077706	2	0
37.78757311735535	0.8213943000009749	2	49	91804.51894	100	0.7889415999961784	1	0
38.608967417356325	0.8120328000077279	2	49	91805.52197	75	0.9705763000092702	2	0
39.42100021736405	0.8172205999871949	2	49	91806.07	93.75	0.7065800999989733	1	0
40.23822081735125	0.8154185000021243	2	49	91806.94905	100	0.7684046	1	0
41.05363931735337	0.8129080000071554	2	49	91807.96927	75	0.9732041000097524	2	0
41.86654731736053	0.8184157999930903	2	0	0	0	0	0	0
42.68496311735362	0.8128608999977587	2	49	91809.24026	81.25	0.6128717	1	0
43.49782401735138	0.8190614000050118	2	0	0	0	0	0	0
44.31688541735639	0.8160706000053324	2	49	91811.40333	50	1.1440164999949047	2	0
45.13295601736172	0.8201903000008315	2	49	91812.16664	62.5	1.0912586999911582	2	0
45.95314631736255	0.8166207999893231	2	49	91812.6793	100	0.7837274999910733	1	0
46.769767117351876	0.8133741000056034	2	49	91813.41365	93.75	0.7014551000029314	1	0
47.58314121735748	0.8134591999987606	2	49	91814.35924	93.75	0.8336799999960931	2	0
48.39660041735624	0.8156308000034187	2	49	91815.31346	75	0.9744362000055844	2	0
49.21223121735966	0.8199292999925092	2	49	91816.08958	81.25	0.9349245	2	0
50.03216051735217	0.8131796000088798	1	49	91816.62035	87.5	0.645767	1	0
50.84534011736105	0.8138512000004994	1	49	91817.3753	81.25	0.5875377999909688	1	0
51.65919131736155	0.8222738000040408	2	49	91818.27943	87.5	0.677813	1	0
52.48146511736559	0.8182445999991614	2	49	91819.10355	87.5	0.6796629999880679	1	0
53.29970971736475	0.8119682999968063	1	49	91819.91949	87.5	0.6773538999987068	1	0
54.111678017361555	0.8136449000012362	2	49	91820.80816	100	0.7540563999937149	1	0
54.92532291736279	0.8213420999964001	2	49	91821.5994	93.75	0.7316509999945993	1	0
55.74666501735919	0.8101708000031067	2	49	91822.33136	87.5	0.6422745	1	0
56.55683582	0.8167422999977134	2	49	91823.20182	93.75	0.7025593	1	0
57.37357811736001	0.8165219999937108	2	49	91824.11052	93.75	0.7945227000018349	2	0
58.19010011735372	0.8173311999998987	2	49	91824.9057	100	0.7731806000083452	1	0
59.00743131735362	0.8171353000070667	2	49	91825.72272	100	0.7728700000006938	1	0
59.82456661736069	0.8133666999929119	2	49	91826.60748	87.5	0.8404906999930972	2	0
60.63793332	0.8178453000000445	2	49	91827.45556	87.5	0.8752084000007017	2	0
61.455778617353644	0.8132713000086369	2	49	91828.30157	81.25	0.9033717999991495	2	0
62.26904991736228	0.8220391999930143	1	0	0	0	0	0	0
63.091089117355295	0.8160991000040667	2	49	91829.89292	87.5	0.8594057000009343	2	0
63.90718821735936	0.8130514999938896	1	0	0	0	0	0	0
64.72023971735325	0.8190788000065368	2	49	91831.26164	81.25	0.5989728999993531	1	0
65.53931851735979	0.8140726999990875	2	49	91832.18276	93.75	0.7010136	1	0
66.35339121735888	0.8194397000042954	2	49	91833.06135	100	0.7655353	1	0
67.17283091736317	0.8142209	2	49	91834.06904	75	0.9537898999988101	2	0
67.98705181735568	0.8134942000033334	2	49	91834.63381	93.75	0.7043303999962518	1	0
68.80054601735901	0.8130745999951614	2	49	91835.52693	93.75	0.7839600000006612	2	0
69.61362061735417	0.8202307000028668	2	49	91836.38193	93.75	0.8258825000084471	2	0
70.43385131735704	0.8157843999942997	2	49	91837.53985	50	1.1635743000078946	2	0
71.24963571735134	0.8154951000033179	2	49	91838.03585	87.5	0.8437935000110883	2	0
72.06513081735466	0.8176820000080625	2	49	91838.72194	93.75	0.7143821000063326	1	0
72.88281281736272	0.8133841999951983	1	0	0	0	0	0	0
73.69619701735792	0.8173855	1	49	91840.23797	81.25	0.5993531999993138	1	0
74.51358251736383	0.8207371999887982	2	49	91841.29022	93.75	0.8342133999976795	2	0
75.33431971735263	0.8151052000030177	2	49	91842.09928	93.75	0.8225348000123631	2	0
76.14942491735565	0.8118303	2	49	91842.93111	87.5	0.8392592	2	0
76.96125521736394	0.8165483999910066	2	49	91843.68505	100	0.7813705000007758	1	0
77.77780361735495	0.8159187999990536	2	49	91844.41734	93.75	0.6971083000098588	1	0
78.59372242	0.8189715000044089	2	49	91845.38934	87.5	0.8531928000011249	2	0
79.41269391735841	0.8143604999931995	2	49	91846.29237	81.25	0.9372551999986172	2	0
80.22705441735161	0.8196281000127783	2	49	91846.97921	93.75	0.8097309000004316	2	0
81.04668251736439	0.8127203999902122	2	49	91847.80633	93.75	0.8172230999916792	2	0
81.85940292	0.8148383000079775	2	49	91848.57031	100	0.7684837999986485	1	0
82.67424121736258	0.8154570999904536	2	49	91849.2397	81.25	0.6230388999974821	1	0
83.48969831735303	0.8178565999987768	2	49	91850.08326	87.5	0.6511404	1	0
84.30755491735181	0.8133976	2	49	91851.05346	93.75	0.8034812000114471	2	0
85.12095251736173	0.8171020000008866	2	49	91851.86773	93.75	0.8043554	2	0
85.93805451736262	0.8204723999951966	2	49	91852.68939	93.75	0.8089156999922125	2	0
86.75852691735781	0.8135076000035042	2	49	91853.46832	100	0.7673676999984309	1	0
87.57203451736132	0.8155699999915669	2	49	91854.46387	75	0.9494147999939742	2	0
88.38760451735288	0.816887	2	49	91855.05753	93.75	0.7274987000128021	1	0
89.20449151736102	0.8155570999952033	2	49	91855.92851	100	0.7815983000036795	1	0
90.02004861735622	0.8194554000074277	2	49	91856.7345	100	0.7720237000030465	1	0
90.83950401736365	0.8115211	2	49	91857.49367	93.75	0.7117419999995036	1	0
91.65102512	0.8168863000028068	2	49	91858.30163	93.75	0.7081833999982337	1	0
92.46791141736321	0.8153331999928923	2	49	91859.14469	100	0.7343522000010125	1	0
93.28324462	0.8174857999983942	2	49	91859.92294	93.75	0.6972744000086095	1	0
94.10073042	0.8184806000062963	2	49	91860.75308	93.75	0.7099309000041103	1	0
94.91921102	0.8137795999937225	2	49	91861.61265	100	0.7510138999932678	1	0
95.73299061735452	0.8150280999980168	2	49	91862.32989	87.5	0.6544767000013962	1	0
96.54801871735253	0.8160875000030501	2	49	91863.20019	93.75	0.7097484000114491	1	0
97.36410621735558	0.8191597999975784	2	49	91864.04162	93.75	0.7350867000059225	1	0
98.18326601735316	0.8148712000111118	2	49	91864.84889	93.75	0.7232006999984151	1	0
98.99813721736427	0.8160700000007637	2	49	91865.63576	93.75	0.6951958999998169	1	0
99.81420721736504	0.8180854999955045	2	49	91866.42486	87.5	0.6682273999904282	1	0
100.63229271736054	0.8165047999937087	2	49	91867.31279	100	0.7380757999926573	1	0
101.44879751735425	0.8131660000071861	1	0	0	0	0	0	0
102.26196351736144	0.8159594000026118	2	49	91868.95387	100	0.7494808999908855	1	0
103.07792291736405	0.8159086999949068	2	49	91869.63382	81.25	0.6134703999996418	1	0
103.89383161735896	0.8158882999996422	2	49	91870.65496	93.75	0.8187060000054771	2	0
104.7097199173586	0.8184712999936892	2	49	91871.3721	93.75	0.7199567000061506	1	0
105.52819121735229	0.8151491000025999	2	49	91872.33324	87.5	0.8626228000066476	2	0
106.34334031735489	0.8158454000076745	2	49	91873.20704	81.25	0.9212813000049209	2	0
107.15918571736256	0.8179948	2	49	91873.92211	93.75	0.8204983999894466	2	0
107.97718051735137	0.8139517000090564	2	49	91874.59584	87.5	0.6762320000125328	1	0
108.79113221736043	0.8206632999936119	2	49	91875.44053	93.75	0.7069769999943674	1	0
109.61179551735404	0.8143749000009848	2	49	91876.17332	81.25	0.6191054000082659	1	0
110.42617041735502	0.8133180000004359	2	49	91877.17422	93.75	0.8056225000036648	2	0
111.23948841735546	0.8177205000101821	2	49	91877.93281	100	0.7509031	1	0
112.05720891736564	0.8144347999914316	2	49	91878.64911	87.5	0.6494809999858262	1	0
112.87164371735707	0.8171041000023251	2	49	91879.50419	93.75	0.6901196999970125	1	0
113.6887478173594	0.8138421000039671	2	49	91880.33126	93.75	0.7000867	1	0
114.50258991736337	0.8191542999993544	2	49	91881.14953	93.75	0.7045195999962743	1	0
115.32174421736272	0.8225393999891821	2	49	91881.95221	87.5	0.6880404999974417	1	0
116.1442836173519	0.8220739000098547	2	49	91882.77076	87.5	0.6840520000114338	1	0
116.96635751736176	0.8147529999987455	2	49	91883.43947	68.75	0.5306915999972261	1	0
117.7811105173605	0.8135919000051217	2	49	91884.26334	75	0.5398066000052495	1	0
118.59470241736562	0.8160551999899326	2	49	91884.92749	56.25	0.39035979998880066	1	0
119.41075761735556	0.8166048999992199	2	49	91885.77159	56.25	0.4184104000014486	1	0
120.22736251735478	0.8178836000006413	2	49	91886.79119	81.25	0.6214063000079477	1	0
121.04524611735542	0.8168282999977237	2	49	91887.55246	75	0.5647867000079714	1	0
121.86207441735314	0.8108018	2	49	91888.45374	87.5	0.6492399999988265	1	0
122.67287621735886	0.8108576999948127	2	49	91889.35757	100	0.7422725999931572	1	0
123.48373391735367	0.8137031000078423	2	49	91890.0623	87.5	0.6361414999992121	1	0
124.29743701736152	0.8203136999945855	2	49	91890.92755	87.5	0.6876904	1	0
125.1177507173561	0.8146701000077883	2	49	91891.69649	87.5	0.6363158	1	0
125.93242081736389	0.8132345	2	49	91892.63858	100	0.7637358999927528	1	0
126.74565531735425	0.8169885000097565	2	49	91893.56965	87.5	0.8815755000105128	2	0
127.5626438	0.8174048999935621	2	49	91894.30465	93.75	0.7995828999992227	2	0
128.38004871735757	0.8155248999973992	2	49	91895.00678	93.75	0.6843033000041032	1	0
129.19557361735497	0.8188227000064217	2	49	91895.75648	81.25	0.6184836000029463	1	0
130.0143963173614	0.8153756999963662	2	49	91896.62686	87.5	0.6700404000002891	1	0
130.82977201735775	0.8181467999966117	2	49	91897.45491	87.5	0.6827158999949461	1	0
131.64791881735437	0.8154525999998441	2	49	91898.46811	87.5	0.8777683000080287	2	0
132.4633714173542	0.8133363000088139	2	49	91899.11977	93.75	0.7139712000061991	1	0
133.27670771736302	0.8172002999926917	2	49	91899.93097	93.75	0.7118353	1	0
134.09390801735572	0.8128979000030085	2	49	91900.79592	100	0.7595897999999579	1	0
134.90680591735872	0.8193067999964114	2	49	91901.70174	87.5	0.8525074000062887	2	0
135.72611271735514	0.8169381000043359	2	49	91902.42187	100	0.7533342000097036	1	0
136.54305081735947	0.8144323000014992	2	49	91903.2121	93.75	0.7266214999981457	1	0
137.35748311736097	0.8153361000004224	1	0	0	0	0	0	0
138.1728192173614	0.8160571999906097	2	49	91904.79387	87.5	0.6786290000018198	1	0
138.9888764	0.8159154000022681	2	49	91905.6089	87.5	0.6776001000107499	1	0
139.80479181735427	0.8195025000022724	2	49	91906.41928	87.5	0.6720669000060298	1	0
140.62429431735654	0.8214202000090154	2	49	91907.31078	100	0.7440609	1	0
141.44571451736556	0.8092535999894608	2	49	91908.03695	87.5	0.6488140000001295	1	0
142.25496811735502	0.8141857000009622	2	49	91908.8251	81.25	0.6277094000106445	1	0
143.06915381735598	0.8160700000007637	2	49	91909.62598	81.25	0.6144026999972994	1	0
143.88522381735675	0.8233828000084031	2	49	91910.41327	75	0.5856229000055464	1	0
144.70860661736515	0.8113201999949524	2	49	91911.32908	87.5	0.6780523	1	0
145.5199268173601	0.8134496	2	49	91912.19906	100	0.7367092	1	0
146.33337641735852	0.8187039000040386	2	49	91913.1364	87.5	0.8606024000036996	2	0
147.15208031736256	0.8182145000027958	2	49	91913.85715	100	0.7626468999951612	1	0
147.97029481736536	0.8160562999983085	2	49	91914.55118	81.25	0.6384648999955971	1	0
148.78635111736367	0.8123925999971107	2	49	91915.36718	87.5	0.6384027999883983	1	0
149.59874371736078	0.8172912000009092	1	49	91916.25847	93.75	0.7173008999961894	1	0
150.41603491736169	0.8216143000026932	1	0	0	0	0	0	0
151.23764921736438	0.817973	2	49	91917.83267	87.5	0.6525967999914428	1	0
152.05562221736182	0.8155038999975659	1	49	91918.71146	93.75	0.7134095999936108	1	0
152.87112611735938	0.8210824999987381	2	49	91919.63077	93.75	0.8172224	2	0
153.69220861735812	0.8149298000062117	2	49	91920.3607	93.75	0.7260681000043405	1	0
154.50713841736433	0.8135672999924282	2	49	91921.09736	87.5	0.6478018999914639	1	0
155.32070571735676	0.8161354000039864	2	49	91921.85038	81.25	0.5872545000020182	1	0
156.13684111736075	0.8136406999983592	2	49	91922.64149	75	0.5622211000008974	1	0
156.9504818173591	0.8111612999928184	2	49	91923.36863	62.5	0.4757246999943163	1	0
157.76164311735192	0.8138861000043107	2	49	91924.35282	87.5	0.6487502000090899	1	0
158.57552921735623	0.8237555000087013	2	49	91925.39135	87.5	0.8734020999982022	2	0
159.39928471736494	0.8173083999863593	2	49	91926.11068	100	0.7689696999877924	1	0
160.2165931173513	0.8183242000086466	2	49	91926.7706	81.25	0.6115825	1	0
161.03491731735994	0.8159818999993149	2	49	91927.68981	93.75	0.7124647	1	0
161.85089921735926	0.8126221999991685	2	49	91928.47376	93.75	0.6804407000017818	1	0
162.66352141735842	0.8127674999996088	2	49	91929.32776	93.75	0.7218144999933429	1	0
163.47628891735803	0.8233398000011221	2	49	91930.14917	93.75	0.7304575000016484	1	0
164.29962871735916	0.8131282999966061	2	49	91930.90472	87.5	0.6626727999973809	1	0
165.11275701735576	0.8207602000038605	2	49	91931.88997	93.75	0.8347902999958023	2	0
165.93351721735962	0.8150044999929378	2	49	91932.65985	93.75	0.7839130999927875	2	0
166.74852171735256	0.8184401000034995	2	49	91933.64488	75	0.9539365000091493	2	0
167.56696181735606	0.8126019000046654	2	49	91934.29105	93.75	0.7816687000013189	2	0
168.37956371736072	0.8151214999961667	2	49	91935.13792	93.75	0.8159315999946557	2	0
169.1946852173569	0.8158401999971829	2	49	91935.8848	100	0.7476964000088628	1	0
170.01052541735407	0.8203191000065999	2	49	91936.73793	100	0.7849847	1	0
170.83084451736067	0.8104968	2	49	91937.43206	87.5	0.6587957000010647	1	0
171.64134131735773	0.8089355999982217	2	49	91938.36316	93.75	0.7793974999949569	2	0
172.45027691735595	0.8214700999960769	2	49	91939.13539	100	0.7426870000053896	1	0
173.27174701735203	0.8131226000114111	2	49	91940.06107	87.5	0.8468964000057895	2	0
174.08486961736344	0.8158305999968434	2	49	91940.74604	93.75	0.7187494999961928	1	0
174.90070021736028	0.8128664999967441	2	49	91941.52498	87.5	0.6818611000053352	1	0
175.71356671735703	0.8202641999960179	1	49	91942.26717	81.25	0.6111755000019912	1	0
176.53383091735304	0.8166695	2	49	91943.13239	87.5	0.6561375000019325	1	0
177.35050041736395	0.8146784999989904	1	49	91943.98617	93.75	0.6932456999929855	1	0
178.16517891736294	0.8186538000009023	2	49	91944.93752	93.75	0.8299143999902299	2	0
178.98383271736384	0.8152703999949154	2	49	91945.7593	93.75	0.8330459999997402	2	0
179.79910311735875	0.8121020999969915	2	49	91946.68109	75	0.9395616	2	0
180.61120521735575	0.8204526000045007	2	49	91947.36701	93.75	0.8133854000043357	2	0
181.43165781736025	0.8120458999910625	2	49	91948.13519	100	0.7611104999959935	1	0
182.2437037173513	0.8168051000102423	2	49	91949.14131	75	0.9551869000133593	2	0
183.06050881736155	0.820835	2	49	91949.86433	87.5	0.8614001999958418	2	0
183.8813438173529	0.8105164	2	49	91950.52758	93.75	0.7038134000031278	1	0
184.69186021735368	0.8167669	2	49	91951.50044	87.5	0.8661599	2	0
185.50862711736409	0.8192757999931928	2	49	91952.27428	93.75	0.8232312999898568	2	0
186.32790291735728	0.8168259999947622	2	49	91953.03854	100	0.7682096000062302	1	0
187.14472891735204	0.8165095	2	49	91953.84776	100	0.7606117	1	0
187.96123841735243	0.813257	2	49	91954.77694	87.5	0.8732793000090169	2	0
188.77449541735405	0.8193399000010686	1	0	0	0	0	0	0
189.59383531735511	0.8173414000048069	2	49	91956.18162	87.5	0.645358	1	0
190.41117671735992	0.8154118	2	49	91956.98136	81.25	0.6277646	1	0
191.22658851735468	0.8165784000011627	1	0	0	0	0	0	0
192.04316691735585	0.8194029000005685	2	49	91958.63261	87.5	0.6470190999971237	1	0
192.86256981735642	0.8108624	2	49	91959.61353	93.75	0.8085338999953819	2	0
193.6734322173579	0.8176600000006147	2	49	91960.47496	87.5	0.8591079	2	0
194.49109221735853	0.8185509000031743	2	49	91961.2325	93.75	0.7989813000021968	2	0
195.3096431173617	0.8231079999968642	2	49	91962.10976	87.5	0.8576896000013221	2	0
196.13275111735857	0.8153879000019515	2	49	91962.87963	93.75	0.8044589000055566	2	0
196.94813901736052	0.8170228999952087	1	0	0	0	0	0	0
197.76516191735573	0.8111680000001797	2	49	91964.34782	87.5	0.6402341000066372	1	0
198.5763299173559	0.8103285999968648	1	49	91965.21206	93.75	0.6933083000039915	1	0
199.38665851735277	0.8139877000066917	1	0	0	0	0	0	0
200.20064621735946	0.8169154999923194	2	49	91967.35004	43.75	1.2069726000045193	2	0
201.01756171735178	0.8156985000096029	1	0	0	0	0	0	0
201.83326021736139	0.8168310000037309	2	49	91968.59581	93.75	0.8201314000034472	2	0
202.65009121736512	0.8141125999973156	2	49	91969.34957	100	0.7570539999869652	1	0
203.46420381736243	0.8177203999948688	2	49	91970.05915	87.5	0.6525195	1	0
204.2819242173573	0.8167438999953447	2	49	91971.01008	93.75	0.7857369999983348	2	0
205.09866811735264	0.8128417000116315	2	49	91971.85403	93.75	0.8129424000071594	2	0
205.91150981736428	0.8175637999956962	2	49	91972.59591	100	0.7419755999871995	1	0
206.72907361735997	0.8227002000057837	2	49	91973.46139	100	0.7898888000054285	1	0
207.55177381736576	0.8141737999976613	2	49	91974.36327	87.5	0.8690742999897338	2	0
208.36594761736342	0.8133002999966266	2	49	91975.12736	93.75	0.8189929999934975	2	0
209.17924791736004	0.8145882999961032	1	0	0	0	0	0	0
209.99383621735615	0.8161025000008522	2	49	91976.60964	87.5	0.6733780000067782	1	0
210.8099387	0.8162277999945218	2	49	91977.62006	87.5	0.8676969000080135	2	0
211.62616651735152	0.8162830000073882	2	49	91978.48216	81.25	0.9135671000112779	2	0
212.4424495173589	0.815189	1	0	0	0	0	0	0
213.25763851735974	0.8170559999998659	2	49	91979.8505	87.5	0.6504349000024376	1	0
214.0746945173596	0.8172793999983696	2	49	91980.71646	93.75	0.6993455000047106	1	0
214.89197391735797	0.8165046000067377	2	49	91981.6474	93.75	0.8130049000028521	2	0
215.7084785173647	0.8217027999926358	2	49	91982.65311	68.75	1.0022110999998404	2	0
216.53018131735735	0.8135537000052864	2	49	91983.2123	100	0.7396959000034258	1	0
217.34373501736263	0.8115251999988686	2	49	91984.0264	100	0.7402371999924071	1	0
218.1552602173615	0.8236953000014182	2	49	91984.81479	93.75	0.7171038999949815	1	0
218.97895551736292	0.8119777999963844	1	0	0	0	0	0	0
219.7909333173593	0.8141011999978218	2	49	91986.45617	93.75	0.7228105999965919	1	0
220.60503451735713	0.8170137999986764	2	49	91987.57921	68.75	1.0317553000058979	2	0
221.4220483173558	0.8137506000057328	2	49	91988.35375	68.75	0.9892761000082828	2	0
222.23579891736154	0.8168975000007777	2	49	91988.9987	93.75	0.8204803999979049	2	0
223.0526964173623	0.8152407000015955	2	49	91989.74547	100	0.7503545999934431	1	0
223.8679371173639	0.8202890999964438	2	49	91990.64133	93.75	0.8309728999884101	2	0
224.68822621736035	0.8117812999989837	2	49	91991.49852	87.5	0.8678752999985591	2	0
225.50000751735934	0.8179897999943933	2	49	91992.19006	100	0.7476332999940496	1	0
226.31799731735373	0.8168224000110058	2	49	91993.01194	100	0.7515155000000959	1	0
227.13481971736473	0.8153514000005089	2	49	91993.91355	87.5	0.8363086	2	0
227.95017111736524	0.8157327999942936	2	49	91994.613	93.75	0.7204031000001123	1	0
228.76590391735954	0.8158581000025151	2	49	91995.48117	100	0.7728442999941763	1	0
229.58176201736205	0.8221355999994557	1	49	91996.17263	87.5	0.6484412999998312	1	0
230.4038976173615	0.8174494	2	49	91997.2418	81.25	0.8954742999922018	2	0
231.22134701735922	0.8085314000054495	2	49	91997.97688	93.75	0.8131087999936426	2	0
232.02987841736467	0.8163309999945341	2	49	91998.74741	100	0.7751088999939384	1	0
232.8462094173592	0.8167345999972895	2	49	91999.4989	93.75	0.7102630000008503	1	0
233.6629440173565	0.8187227000016719	1	49	92000.267	87.5	0.6616279000008944	1	0
234.48166671735817	0.8150409	2	49	92001.15508	93.75	0.7309926000016276	1	0
235.29670761735179	0.8128689	2	49	92002.18725	75	0.9481222000031266	2	0
236.10957651735225	0.8218825000076322	2	49	92002.79405	100	0.7420477000123356	1	0
236.93145901735988	0.8122965999937151	2	49	92003.6079	93.75	0.7340139000007184	1	0
237.7437556173536	0.8186883000016678	1	49	92004.4249	100	0.7387232000037329	1	0
238.56244391735527	0.8147758999984944	2	49	92005.20799	93.75	0.7031272	1	0
239.37721981735376	0.8143107000068994	2	49	92006.04576	93.75	0.7261137000023155	1	0
240.19153051736066	0.8156354999955511	2	49	92006.85797	93.75	0.7240185	1	0
241.0071660173562	0.8175060000066878	2	49	92007.63303	87.5	0.6834434000047622	1	0
241.8246720173629	0.8167404999985592	2	49	92008.4437	87.5	0.6766073999897344	1	0
242.64141251736146	0.8140907999913907	2	49	92009.47793	81.25	0.8940957000013441	2	0
243.45550331735285	0.8207562000025064	2	49	92010.38729	75	0.9893657000066014	2	0
244.27625951735536	0.8210331000009319	2	49	92011.0271	93.75	0.8084138999984134	2	0
245.0972926173563	0.8072985	2	49	92011.78644	100	0.7467220999969868	1	0
245.90459111735981	0.8180109	2	49	92012.86515	68.75	1.0181314999936149	2	0
246.7226020173548	0.8176326000102563	2	49	92013.38125	93.75	0.7162244000064675	1	0
247.54023461736506	0.8161024000000907	2	49	92014.29637	93.75	0.8137120999890612	2	0
248.35633701736515	0.8135837999871001	1	49	92015.12461	93.75	0.8258468999993056	2	0
249.16992081735225	0.8160802000056719	2	49	92015.78119	87.5	0.6688417000113986	1	0
249.98600101735792	0.8164395000057993	2	49	92016.57237	87.5	0.6439446000003954	1	0
250.80244051736372	0.8299014999938663	2	49	92017.36311	81.25	0.6182412999914959	1	0
251.6323420173576	0.8183217000041623	1	49	92018.20091	81.25	0.6261487000010675	1	0
252.45066371736175	0.8089048999972874	2	49	92019.08838	93.75	0.6952957000030437	1	0
253.25956861735904	0.8101732999930391	2	49	92019.86257	87.5	0.6605793000053382	1	0
254.06974191735208	0.8147784000029787	2	49	92020.94162	81.25	0.9294516000081785	2	0
254.88452031735505	0.8178390000102809	2	49	92021.74318	81.25	0.9162368999968749	2	0
255.70235931736534	0.8117556999932276	2	49	92022.33785	93.75	0.6930713999900036	1	0
256.51411501735856	0.8201763	2	49	92023.21298	100	0.7564382999989903	1	0
257.33429131735465	0.8176946000021417	2	49	92024.02055	100	0.7438401999970665	1	0
258.1519859173568	0.8151472000026843	1	49	92024.78774	93.75	0.6933310000022175	1	0
258.9671331173595	0.8173742999933893	2	49	92025.47646	75	0.5669064999965485	1	0
259.78450741735287	0.812833	2	49	92026.46081	100	0.7338831000088248	1	0
260.59734041735646	0.8161174999986542	2	49	92027.37441	93.75	0.8346441000030609	2	0
261.4134579173551	0.8138705	2	49	92028.07904	93.75	0.7231632000039099	1	0
262.22732841735706	0.8161555999977281	2	49	92029.03767	87.5	0.8679148000082932	2	0
263.0434840173548	0.8169249	2	49	92029.79618	93.75	0.8102712000109022	2	0
263.8604089173605	0.8180235000036191	2	49	92030.57562	100	0.7727868999936618	1	0
264.6784324173641	0.8157925999985309	2	49	92031.45755	93.75	0.8366978999983985	2	0
265.4942250173626	0.8188645999907749	2	49	92032.17877	100	0.7421172	1	0
266.3130896173534	0.8170005	2	49	92032.92892	87.5	0.6734060000017053	1	0
267.13009011735267	0.8138336000120034	2	49	92033.7192	87.5	0.6466843000089284	1	0
267.94392371736467	0.8148351999989245	2	49	92034.65614	100	0.7697920999926282	1	0
268.7587589173636	0.8164213999989443	2	49	92035.38575	93.75	0.6845674999931362	1	0
269.57518031736254	0.8186177000025054	1	0	0	0	0	0	0
270.39379801736504	0.8101468999957433	2	49	92037.06985	100	0.7336316999862902	1	0
271.2039449173608	0.8237515999935567	2	49	92037.87208	93.75	0.7257160000008298	1	0
272.02769651735434	0.8101616000058129	2	49	92038.70593	100	0.7358077000099001	1	0
272.83785811736016	0.8161006000009365	2	49	92039.52709	100	0.7468061999970814	1	0
273.6539587173611	0.8170178000000305	2	49	92040.41489	93.75	0.8185033000045223	2	0
274.4709765173611	0.8192246999969939	2	49	92041.2521	93.75	0.8387021999951685	2	0
275.2902012173581	0.8146997000003466	2	49	92042.1251	81.25	0.8924714000022504	2	0
276.10490091735846	0.8139279000024544	1	0	0	0	0	0	0
276.9188288173609	0.8237153999943985	2	49	92043.52333	87.5	0.6620732000010321	1	0
277.7425442173553	0.8120096000056947	2	49	92044.47517	93.75	0.7902032999991206	2	0
278.5545538	0.8149299999931827	2	49	92045.25405	100	0.7570751000021119	1	0
279.3694838173542	0.8163287000061246	2	49	92046.2404	81.25	0.9284979000076419	2	0
280.1858125173603	0.8195791	2	49	92047.17141	62.5	1.043173600002774	2	0
281.0053916173638	0.8118862999981502	2	0	0	0	0	0	0
281.81727791736193	0.8137467999913497	2	49	92048.33517	75	0.5754679999954533	1	0
282.6310247173533	0.8163467999984277	2	49	92049.31621	100	0.7427651	1	0
283.4473715173517	0.8188016000058269	2	49	92050.14944	100	0.7596457000036025	1	0
284.26617311735754	0.8163402000063797	2	49	92051.0194	93.75	0.8108047999994596	2	0
285.0825133173639	0.8234297	2	49	92051.92439	81.25	0.8994571999937762	2	0
285.90594301736564	0.8131814	2	49	92052.59383	100	0.7454607999970904	1	0
286.7191244173591	0.8107799999997951	2	49	92053.32276	87.5	0.6612144999962766	1	0
287.5299044173589	0.8187516	2	49	92054.30466	93.75	0.8323334000015166	2	0
288.3486560173624	0.8126724999892758	2	49	92055.15538	87.5	0.8642986999911955	2	0
289.16132851735165	0.8144657000084408	2	49	92055.89558	93.75	0.7918269	2	0
289.9757942173601	0.8171585	2	49	92056.72599	93.75	0.8077712	2	0
290.79295271735464	0.8173361000081059	2	49	92057.52585	93.75	0.7904704000102356	2	0
291.61028881736274	0.8186806000012439	2	49	92058.37778	93.75	0.8250685999955749	2	0
292.4289694	0.8113656999921659	2	49	92059.16476	93.75	0.7933684	2	0
293.24033511735615	0.8181326000049012	2	49	92059.92351	100	0.7407470000034664	1	0
294.05846771736105	0.8167353000026196	2	49	92060.92487	81.25	0.9239828999998281	2	0
294.8752030173637	0.8174540999898454	2	49	92061.5545	93.75	0.7368759999953909	1	0
295.6926571173535	0.8136444000119809	2	49	92062.38884	100	0.7537573000008706	1	0
296.5063015173655	0.8154216999973869	2	49	92063.29782	87.5	0.8490961999923456	2	0
297.3217232173629	0.8143913999956567	2	49	92064.09371	93.75	0.8295670999941649	2	0
298.13611461735854	0.8205796999973245	2	49	92064.95798	87.5	0.8794379	2	0
298.95669431735587	0.8177322999981698	1	0	0	0	0	0	0
299.77442661735404	0.8182050000032177	1	0	0	0	0	0	0
300.59263161735726	0.8173429000016768	2	49	92067.16178	81.25	0.6267242000030819	1	0
301.40997451735893	0.8074829999968642	2	49	92068.06413	93.75	0.7117321999976411	1	0
302.2174575173558	0.8181512000010116	2	49	92069.02368	87.5	0.8637970999989193	2	0
303.0356087173568	0.8159785000025295	1	0	0	0	0	0	0
303.85158721735934	0.8171082000044407	2	49	92070.53794	100	0.7439291000046069	1	0
304.6686954173638	0.8149321999953827	2	49	92071.52297	81.25	0.9118523999932222	2	0
305.48362761735916	0.8190843000047607	2	49	92072.18237	100	0.7563232999964384	1	0
306.3027119173639	0.8138388999941526	2	49	92073.05436	93.75	0.8092290999920806	2	0
307.1165508173581	0.8193975	2	49	92073.89965	87.5	0.8406754000025103	2	0
307.9359483173612	0.8225206999923103	2	49	92074.77906	81.25	0.9006852000020444	2	0
308.7584690173535	0.8137515	1	0	0	0	0	0	0
309.5722205173515	0.8081874000054086	2	49	92076.28233	100	0.7676879000064218	1	0
310.38040791735693	0.8177675000042655	2	49	92077.07119	100	0.7483580999978585	1	0
311.1981754173612	0.8287809000030393	2	49	92077.83626	93.75	0.6956566000008024	1	0
312.02695631736424	0.8129953999887221	2	49	92078.93419	75	0.9648087999958079	2	0
312.83995171735296	0.8141497000033269	2	49	92079.53117	100	0.7487953000090783	1	0
313.6541014173563	0.8199531999998726	2	49	92080.44653	87.5	0.8500085999985458	2	0
314.47405461735616	0.8231639000005089	2	49	92081.39696	75	0.9804816999967443	2	0
315.29721851735667	0.8148419000062859	2	49	92082.0344	93.75	0.7947597000020323	2	0
316.11206041736295	0.8123887	2	49	92082.99817	75	0.9436905999900773	2	0
316.9244491173595	0.8141845999925863	2	49	92083.85045	75	0.9835764000017662	2	0
317.73863371735206	0.8165631000010762	2	49	92084.44137	100	0.7603111000062199	1	0
318.55519681735313	0.8120588000019779	2	49	92085.39927	81.25	0.9016542000026675	2	0
319.3672556173551	0.8154585000011139	2	49	92086.15878	87.5	0.8491031000012299	2	0
320.1827141173562	0.8124470000038855	2	49	92087.09495	75	0.9698161999986041	2	0
320.9951611173601	0.8125426000042353	2	49	92087.88662	75	0.9490393000014592	2	0
321.80770371736435	0.8152780999953393	1	0	0	0	0	0	0
322.6229818173597	0.8159180999937234	2	49	92089.35256	93.75	0.7871541999920737	2	0
323.4388999173534	0.8216357000055723	2	49	92090.48248	56.25	1.1011556000012206	2	0
324.2605356	0.8118051000055857	2	49	92090.99185	93.75	0.7888887000008253	2	0
325.07234071736457	0.8184960999933537	2	49	92091.79782	100	0.7830544	1	0
325.8908368173579	0.8172059000062291	2	49	92092.53568	93.75	0.7024201000022003	1	0
326.70804271736415	0.8154445999971358	2	49	92093.38365	93.75	0.7331864000007045	1	0
327.5234873173613	0.8116828999918653	2	49	92094.26713	93.75	0.8012232999899425	2	0
328.33517021735315	0.8166287000058219	2	49	92095.0936	93.75	0.8160070000012638	2	0
329.1517989	0.8157309	2	49	92095.90468	93.75	0.8104602	2	0
329.96752981735335	0.8195458000118379	1	49	92096.72528	93.75	0.8153285	2	0
330.7870756173652	0.8305831999896327	2	49	92097.45872	93.75	0.7292202	1	0
331.6176588173548	0.8346435999992536	2	49	92098.3019	93.75	0.7418209000024945	1	0
332.4523024173541	0.8339859000116121	2	49	92099.30976	81.25	0.9150355000019772	2	0
333.2862883173657	0.8343378999998095	2	49	92100.10977	87.5	0.8810594999958994	2	0
334.1206262173655	0.8336241999932099	2	49	92100.9869	81.25	0.9238549999863608	2	0
334.9542504173587	0.8289362999930745	2	49	92101.68013	100	0.7834595000022091	1	0
335.7831867173518	0.8201761	2	49	92102.48241	100	0.7567954000114696	1	0
336.6033628173609	0.8123887	2	49	92103.29798	100	0.7521896999969613	1	0
337.4157515173574	0.8156891999969957	1	0	0	0	0	0	0
338.2314407173544	0.8166736999992281	2	49	92104.89645	93.75	0.7225872999988496	1	0
339.04811441735364	0.8145349000114948	1	0	0	0	0	0	0
339.86264931736514	0.8196685999864712	1	49	92106.52607	93.75	0.7209987999958685	1	0
340.6823179173516	0.8167216000001645	2	49	92107.41802	93.75	0.7932808000041405	2	0
341.4990395173518	0.8132079000060912	2	49	92108.27013	93.75	0.8286718000017572	2	0
342.31224741735787	0.8280187000054866	2	49	92108.93987	87.5	0.6852007999987109	1	0
343.14026611736335	0.8120211999921594	2	49	92109.64538	75	0.5626883999939309	1	0
343.9522873173555	0.8165617000049679	2	49	92110.44198	75	0.5472647999995388	1	0
344.7688490173605	0.8103894999949262	2	49	92111.3316	81.25	0.6203236000001198	1	0
345.5792385173554	0.8144501	2	49	92112.1563	87.5	0.6346361	1	0
346.3936886173615	0.8135167000000365	1	0	0	0	0	0	0
347.2072053173615	0.8202621999953408	2	49	92113.97028	93.75	0.8206479	2	0
348.02746751735685	0.8154404000088107	2	49	92114.9343	75	0.9644060999999056	2	0
348.84290791736566	0.8208021999889752	2	49	92115.68226	81.25	0.8969269999943208	2	0
349.66371011735464	0.8156091999990167	2	49	92116.60129	68.75	0.9951519000023836	2	0
350.47931931735366	0.8159728000027826	2	49	92117.1785	100	0.7567552000109572	1	0
351.29529211735644	0.8161947000044165	2	49	92118.04536	93.75	0.8076489	2	0
352.11148681736086	0.8135232999920845	2	49	92118.84937	93.75	0.7954619999945862	2	0
352.92501011735294	0.8165844000031939	2	49	92119.69465	93.75	0.8272177000035299	2	0
353.74159451735613	0.8114289000077406	2	49	92120.52241	87.5	0.8383897000021534	2	0
354.5530234173639	0.8230591999890748	1	0	0	0	0	0	0
355.37608261735295	0.8192971000098623	2	49	92122.06851	100	0.7499997000122676	1	0
356.1953797173628	0.8142368999979226	2	49	92122.81455	87.5	0.6767469999904279	1	0
357.00961661736073	0.8219243999919854	2	49	92123.57699	81.25	0.6249469	1	0
357.8315410173527	0.8232267000130378	2	49	92124.60267	93.75	0.8287052000086987	2	0
358.65476771736576	0.8148399999918183	2	49	92125.42673	93.75	0.8295406999968691	2	0
359.4696077173576	0.8134036999981618	1	49	92126.17885	100	0.7668210999981966	1	0
360.28301141735574	0.8168676	2	49	92126.88436	87.5	0.6589265000075102	1	0
361.0998790173617	0.8117897999909474	2	49	92127.92182	87.5	0.8795163000031607	2	0
361.9116688173526	0.8114192000066396	2	49	92128.68485	93.75	0.8307545	2	0
362.72308801735926	0.8147867999941809	1	0	0	0	0	0	0
363.53787481735344	0.8115640000032727	2	49	92130.21169	100	0.7313925000053132	1	0
364.3494388173567	0.8150815999979386	2	49	92131.15522	87.5	0.8633546000055503	2	0
365.16452041735465	0.8158843	2	49	92131.94588	87.5	0.8389412999968044	2	0
365.98040471735294	0.8174915	2	49	92132.79609	87.5	0.8732581000076607	2	0
366.79789621736563	0.8158633999992162	1	0	0	0	0	0	0
367.61375961736485	0.8199628999864217	2	49	92134.18191	81.25	0.6257320999866351	1	0
368.43372251735127	0.8141106000111904	2	49	92135.43706	62.5	1.060917300012079	2	0
369.24783311736246	0.8155059	2	49	92135.88492	93.75	0.6946659999957774	1	0
370.0633390173607	0.8143179000035161	2	49	92136.80532	93.75	0.7995585	2	0
370.8776569173642	0.8167414999916218	1	0	0	0	0	0	0
371.69439841735584	0.8171662000095239	2	49	92138.3085	87.5	0.671676	1	0
372.51156461736537	0.8161479999980656	2	49	92139.39479	75	0.9408012	2	0
373.32771261736343	0.8155451999919023	2	49	92140.08996	93.75	0.8198241999925813	2	0
374.14325781735533	0.8160882000083802	2	49	92140.91804	93.75	0.8323564000020269	2	0
374.9593460173637	0.8153109999984736	1	0	0	0	0	0	0
375.7746570173622	0.8161800999951083	2	49	92142.57659	87.5	0.8595060999941779	2	0
376.5908371173573	0.8155001999984961	2	49	92143.32418	93.75	0.7909176	2	0
377.4063373173558	0.8180672000016784	2	49	92144.23033	87.5	0.8815679999970598	2	0
378.22440451735747	0.8223010000074282	2	49	92145.01411	87.5	0.8472786000056658	2	0
379.0467055173649	0.8159891999966931	2	49	92146.12724	56.25	1.138110499989125	2	0
379.8626947173616	0.8125734999921406	1	0	0	0	0	0	0
380.67526821735373	0.8121522000001278	2	49	92147.82235	43.75	1.2046600000030594	2	0
381.48742041735386	0.8176476000080584	2	0	0	0	0	0	0
382.3050680173619	0.8151205000031041	2	49	92148.70726	62.5	0.45976640000299085	1	0
383.1201885	0.8184054999874206	2	49	92150.07847	68.75	1.0158559999981662	2	0
383.93859401735244	0.8185045999998692	1	0	0	0	0	0	0
384.7570986173523	0.8140443000011146	2	49	92151.58331	87.5	0.8837927000131458	2	0
385.5711429173534	0.8155984000040917	2	49	92152.42175	81.25	0.9081822000007378	2	0
386.3867413173575	0.8142877000063891	2	49	92153.07238	100	0.7432200000039302	1	0
387.2010290173639	0.8186979999882169	2	49	92153.90572	100	0.7622703999950318	1	0
388.0197270173521	0.8163945000123931	2	49	92154.59251	81.25	0.6303559000079986	1	0
388.8361215173645	0.8200588999898173	2	49	92155.49229	93.75	0.7137437999917893	1	0
389.65618041735434	0.8096797000034712	2	49	92156.34278	100	0.7441795000049751	1	0
390.4658601173578	0.8177146999951219	1	49	92157.23293	93.75	0.8246426999976393	2	0
391.2835748173529	0.8163830999983475	2	49	92158.08414	87.5	0.8581437000102596	2	0
392.0999579173513	0.8140968000079738	2	49	92158.92743	87.5	0.8850506000017049	2	0
392.91405471735925	0.8159685999999056	2	49	92159.86091	68.75	1.0044307999924058	2	0
393.73002331735916	0.8208221999957459	2	49	92160.38092	93.75	0.7084698999969987	1	0
394.5508455173549	0.8161734000022989	1	49	92161.07267	75	0.5794042000052286	1	0
395.3670189173572	0.8165300999971805	2	49	92162.00662	93.75	0.6971774999983609	1	0
396.1835490173544	0.8108443000091938	2	49	92162.85282	93.75	0.7268442000058712	1	0
396.9943933173636	0.8157532999903196	2	49	92163.79765	87.5	0.8608367999986513	2	0
397.8101466173539	0.8204463000001851	1	0	0	0	0	0	0
398.6305929173541	0.8134864	2	49	92165.14629	75	0.5732762000116054	1	0
399.4440793173562	0.8155824999994365	2	49	92166.57482	50	1.1883191999950213	2	0
400.25966181735566	0.8158203000057256	2	49	92167.01129	93.75	0.8092007000086596	2	0
401.0754821173614	0.8168277	2	49	92167.84595	93.75	0.8280397	2	0
401.89230981735454	0.8166571000037948	1	0	0	0	0	0	0
402.70896691735834	0.8153413999971235	2	49	92169.25686	81.25	0.6054714000056265	1	0
403.52430831735546	0.8222647000075085	2	49	92170.31095	87.5	0.8442147000023397	2	0
404.34657301736297	0.8151301999896532	2	49	92170.97193	87.5	0.6829348999890499	1	0
405.1617032173526	0.8121345000108704	2	49	92171.84094	100	0.7368134999996983	1	0
405.9738377173635	0.8178749999933643	2	49	92172.67831	100	0.7620536	1	0
406.79171271735686	0.8134209999989253	2	49	92173.52908	93.75	0.7949445999984164	2	0
407.6051337173558	0.8159247000003234	2	49	92174.28821	100	0.7406550000014249	1	0
408.4210584173561	0.8170240000035847	1	0	0	0	0	0	0
409.2380824173597	0.8136804999958258	2	49	92175.54621	50	0.3657029000023613	1	0
410.0517629173555	0.816634	1	49	92176.48997	68.75	0.49578690000635106	1	0
410.86839691735804	0.8213397000072291	1	49	92177.77029	75	0.9594724000053247	2	0
411.68973661736527	0.8198605999932624	2	0	0	0	0	0	0
412.50959721735853	0.8162300999974832	2	49	92179.25008	93.75	0.7980552999943029	2	0
413.3258273	0.8159521000052337	2	49	92180.29939	68.75	1.0311423999955878	2	0
414.14177941736125	0.8159722999989754	2	49	92180.92221	87.5	0.8380077	2	0
414.9577517173602	0.8117783999914536	2	49	92181.81443	81.25	0.9142586999951163	2	0
415.7695301173517	0.8141759000136517	2	49	92182.49036	100	0.7784039000107441	1	0
416.58370601736533	0.8155038999975659	2	49	92183.41043	87.5	0.8842987	2	0
417.3992099173629	0.8145624999888241	2	49	92184.10956	100	0.7679304999910528	1	0
418.2137724173517	0.8182437000068603	1	49	92184.94628	93.75	0.7900838000059593	2	0
419.0320161173586	0.8195253000012599	2	49	92185.79861	93.75	0.8241719999932684	2	0
419.85154141735984	0.8114033000019845	2	49	92186.50972	93.75	0.7157507999945665	1	0
420.6629447173618	0.8184638999955496	2	49	92187.29948	93.75	0.6941115999943577	1	0
421.4814086173574	0.8163514000043506	2	49	92188.08861	87.5	0.6647740000043996	1	0
422.2977600173617	0.8136651999957394	1	49	92189.04763	93.75	0.8074507999990601	2	0
423.11142521735746	0.8156969999981811	2	49	92189.74954	93.75	0.6956964999990305	1	0
423.92712221735565	0.8167164000042249	2	49	92190.57089	93.75	0.7013402000011411	1	0
424.74383861735987	0.8199052999989362	2	49	92191.43343	100	0.7471704	1	0
425.5637439173588	0.8237670999951661	2	49	92192.20562	93.75	0.6994558000005782	1	0
426.387511	0.8137596000015037	2	49	92193.3485	68.75	1.0185638000111794	2	0
427.2012706173555	0.8155203000060283	1	49	92193.73877	81.25	0.5950778999977047	1	0
428.0167909173615	0.8128506999928504	2	49	92194.56982	81.25	0.6106065999920247	1	0
428.82964161735435	0.8153802000015276	2	49	92195.58715	93.75	0.8150892999983625	2	0
429.6450218173559	0.8117127000004984	2	49	92196.45585	87.5	0.8684001000074204	2	0
430.4567345173564	0.8156209000007948	1	0	0	0	0	0	0
431.2723554173572	0.8200261000019964	2	49	92197.94671	93.75	0.7319362999987788	1	0
432.0923815173592	0.8113201999949524	2	49	92198.76863	100	0.7338293999928283	1	0
432.9037017173541	0.8196660000103293	2	49	92199.65602	93.75	0.8098918000032427	2	0
433.72336771736445	0.8142965999868466	2	49	92200.41916	100	0.7533726	1	0
434.5376643173513	0.8209563000127673	2	49	92201.28708	93.75	0.8069912000064505	2	0
435.35862061736407	0.8114768	2	49	92202.01406	93.75	0.713013	1	0
436.1700974173582	0.8247363999980735	2	49	92203.11792	68.75	1.0054030000028433	2	0
436.99483381735627	0.8087366999970982	2	49	92203.60496	87.5	0.6676998	1	0
437.80357051735336	0.8159847000060836	2	49	92204.5489	93.75	0.8029090000054566	2	0
438.61955521735945	0.8136335000017425	2	49	92205.4388	87.5	0.8768239000055473	2	0
439.4331887173612	0.8221311999950558	2	49	92206.28214	81.25	0.9065303	2	0
440.25531991735625	0.8135333999962313	2	49	92207.13748	75	0.9397375999978976	2	0
441.0688533173525	0.8128094000130659	1	0	0	0	0	0	0
441.88166271736554	0.8211858999857213	2	49	92208.45609	81.25	0.6320077	1	0
442.70284861735126	0.8141676000086591	2	49	92209.60994	75	0.9646701000019675	2	0
443.5170162173599	0.8152441999991424	2	49	92210.31264	87.5	0.8531992999924114	2	0
444.33226041735907	0.8186848000041209	2	49	92211.04733	100	0.7726474999944912	1	0
445.1509452173632	0.8132731999940006	2	49	92211.77111	87.5	0.6777423000021372	1	0
445.9642184173572	0.8164883999997983	2	49	92212.69818	93.75	0.7915401000063866	2	0
446.7807068	0.8154708000074606	1	49	92213.51311	93.75	0.7899847000080626	2	0
447.59617761736445	0.8155343999969773	2	49	92214.3663	93.75	0.8276976999914041	2	0
448.4117120173614	0.8179863999976078	2	49	92215.37838	68.75	1.024241399994935	2	0
449.22969841735903	0.8145838000054937	2	49	92216.07019	81.25	0.8980681999964872	2	0
450.0442822173645	0.8154339999891818	2	49	92216.80442	93.75	0.8177189999987604	2	0
450.8597162173537	0.8185352000000421	2	49	92217.54742	100	0.7452766000060365	1	0
451.67825141735375	0.8152781000098912	2	49	92218.44264	93.75	0.8219679000030737	2	0
452.49352951736364	0.8154852	2	49	92219.27049	93.75	0.8345356999925571	2	0
453.30901471736433	0.8201453999936348	2	49	92220.10864	87.5	0.8571996999962721	2	0
454.12916011735797	0.8157132000051206	2	49	92221.01771	75	0.9461244999984046	2	0
454.9448733173631	0.8110500999900978	2	49	92221.74635	87.5	0.8590486	2	0
455.7559234173532	0.8167058000108227	2	49	92222.55496	87.5	0.8566180000052555	2	0
456.5726292	0.8178465999953914	2	49	92223.35555	87.5	0.8404970999981742	2	0
457.3904758173594	0.8156939	2	49	92224.26944	81.25	0.9365402999974322	2	0
458.2061697173631	0.8142355000018142	2	49	92225.19361	62.5	1.0450216000026558	2	0
459.0204052173649	0.8165183999954024	2	49	92225.73796	100	0.7751267999992706	1	0
459.8369236173603	0.8173905000003288	2	49	92226.67458	81.25	0.8952312000037637	2	0
460.6543141173606	0.8223590999987209	2	49	92227.35664	100	0.7599060999928042	1	0
461.47667321735935	0.8144836	1	0	0	0	0	0	0
462.29115681735857	0.8166081999952439	2	49	92228.97173	100	0.7381533000007039	1	0
463.1077650173538	0.8120864000084111	2	49	92229.94569	81.25	0.8955014000093797	2	0
463.9198514173622	0.8176058999961242	2	49	92230.71724	87.5	0.8549653	2	0
464.73745731735835	0.8173340000066673	2	49	92231.54177	87.5	0.8618904000031762	2	0
465.5547913	0.8175622999988263	2	49	92232.43089	81.25	0.9336734	2	0
466.37235361736384	0.8161538999993354	2	49	92233.15981	87.5	0.8450306	2	0
467.1885075173632	0.8152161	2	49	92233.94109	93.75	0.8101592000020901	2	0
468.0037236173521	0.8144952000002377	2	49	92234.72306	100	0.7769149000087054	1	0
468.8182188173523	0.8253815000061877	2	49	92235.52729	100	0.7666500000050291	1	0
469.6436003173585	0.8229579000035301	1	0	0	0	0	0	0
470.46655821736204	0.8117341999895871	2	49	92237.14593	100	0.7369481999921845	1	0
471.2782924173516	0.8157176000095205	1	49	92238.05698	87.5	0.8362595000071451	2	0
472.09401001736114	0.8183347000012873	2	49	92238.87123	93.75	0.8347922	2	0
472.91234471736243	0.8142157999973278	2	49	92239.72008	87.5	0.8653166000003694	2	0
473.72656051735976	0.8117333999980474	2	49	92240.49761	93.75	0.8286299000028521	2	0
474.5382939173578	0.8164355000044452	1	49	92241.32917	87.5	0.8484482000058051	2	0
475.35472941736225	0.8146882000000915	2	49	92242.04121	100	0.7440618999971775	1	0
476.16941761736234	0.8171622999943793	1	49	92242.88108	100	0.7692385999980615	1	0
476.9865799173567	0.8159022000036202	2	49	92243.72518	93.75	0.7961806	2	0
477.80248211736034	0.8188661000021966	2	49	92244.50368	100	0.7587768999947002	1	0
478.62134821736254	0.8162209000001894	2	49	92245.46525	81.25	0.9014791999943554	2	0
479.4375691173627	0.8152496999973664	2	49	92246.2784	81.25	0.8984102999966126	2	0
480.2528188173601	0.8138969999999972	2	49	92247.05665	87.5	0.8614043999987189	2	0
481.0667158173601	0.8183038999995915	2	49	92247.89637	87.5	0.8872337999928277	2	0
481.8850197173597	0.8180556000006618	2	49	92248.66437	93.75	0.8369260000035865	2	0
482.70307531736034	0.8124330999999074	2	49	92249.51447	87.5	0.8689680999959819	2	0
483.51550841736025	0.8130866999999853	2	49	92250.39326	81.25	0.9353312000021106	2	0
484.32859511736024	0.8258282000024337	2	49	92251.19035	81.25	0.9193329999980051	2	0
485.15442331736267	0.8230569000006653	2	49	92251.84941	100	0.7525611000019126	1	0
485.97748021736334	0.8133162000012817	2	49	92252.69652	100	0.7766140999883646	1	0
486.7907964173646	0.8130378999921959	2	49	92253.48927	100	0.7560469999880297	1	0
487.6038343173568	0.810644	2	49	92254.31379	100	0.7675286	1	0
488.4144783173542	0.8101320999994641	2	49	92255.19445	87.5	0.8375440000090748	2	0
489.2246104173537	0.8187522000080207	1	49	92255.8906	93.75	0.7235673000104725	1	0
490.0433626173617	0.8136304999934509	1	49	92256.6096	81.25	0.6238179999927524	1	0
490.85699311735516	0.8156870000093477	2	49	92257.42255	81.25	0.6231373000046005	1	0
491.6726801173645	0.8216343999956734	2	49	92258.20071	81.25	0.5856111	1	0
492.4943145173602	0.8163135999930091	2	49	92259.10166	87.5	0.6649238999962108	1	0
493.3106281173532	0.8177768000023207	2	49	92259.97371	93.75	0.7206566000095336	1	0
494.1284049173555	0.8178095	2	49	92260.90688	93.75	0.8360503000003519	2	0
494.94621441735944	0.8091788000019733	2	49	92261.75207	87.5	0.8634351999935461	2	0
495.7553932173614	0.8148837999906391	2	49	92262.49222	93.75	0.7944002	2	0
496.57027701735205	0.8102372	2	49	92263.33202	93.75	0.8193156000052113	2	0
497.38051421735145	0.8180683000100544	2	49	92264.03449	93.75	0.7115554000047268	1	0
498.1985825173615	0.8183717999927467	2	49	92265.08898	75	0.9479762999981176	2	0
499.01695431735425	0.8152952000091318	2	49	92265.7293	100	0.7699207000114257	1	0
499.8322495173634	0.8124234999995679	2	49	92266.51681	100	0.7421352999954252	1	0
500.64467301736295	0.8173539999988861	1	49	92267.375	93.75	0.7879065000015544	2	0
501.46202701736183	0.8170777999912389	2	49	92268.22798	93.75	0.8235335999925155	2	0
502.2791048173531	0.8133990000060294	2	49	92268.98387	100	0.7623420000018086	1	0
503.0925038173591	0.8178747000056319	2	49	92269.75795	93.75	0.7230215000017779	1	0
503.91037851736473	0.8167845999996644	2	49	92270.54605	93.75	0.6932483999989927	1	0
504.7271631173644	0.8182230999955209	2	49	92271.45505	100	0.7854680999880657	1	0
505.5453862173599	0.8146414999937406	2	0	0	0	0	0	0
506.36002771735366	0.8194482	2	0	0	0	0	0	0
507.17947591736447	0.823353	2	0	0	0	0	0	0
508.00282891736424	0.8166120999958366	1	49	92274.61118	87.5	0.6659233999962453	1	0
508.8194410173601	0.8210145000048215	2	49	92275.37343	81.25	0.6115616000024602	1	0
509.6404555173649	n/a	0	0	0	0	0	0	0