onset	duration	cue	constant1	timestamp	stimulus_coherence	response_time	response	constant2
20.463780434103683	0.7992853000760078	2	49	1134036.016	87.5	0.6468173	1	0
21.26306573417969	0.7994806000497192	1	0	0	0	0	0	0
22.06254633422941	0.7982214000076056	2	49	1134037.592	87.5	0.6235185000114143	1	0
22.860767734237015	0.7991237998940051	2	49	1134038.484	93.75	0.7174351	1	0
23.65989153413102	0.7986709999386221	2	49	1134039.533	75	0.9674760000780225	2	0
24.458562534069642	0.7980848	2	49	1134040.059	93.75	0.6949003001209348	1	0
25.25664733420126	0.7987883999012411	2	49	1134040.985	87.5	0.8224803998600692	2	0
26.055435734102502	0.7990472000092268	2	49	1134041.922	75	0.9605775000527501	2	0
26.85448293411173	0.7990448	2	49	1134042.522	100	0.7618446999695152	1	0
27.65352773410268	0.7991041999775916	2	49	1134043.687	50	1.1277024999726564	2	0
28.452631934080273	0.7987874001264572	2	49	1134044.579	37.5	1.2206634001340717	2	0
29.25141933420673	0.7984867000486702	1	0	0	0	0	0	0
30.04990603	0.8003483000211418	2	49	1134045.845	81.25	0.8895701998844743	2	0
30.850254334276542	0.7981596998870373	2	49	1134046.799	62.5	1.0435729997698218	2	0
31.64841403416358	0.7987106998916715	2	49	1134047.217	87.5	0.6628248000051826	1	0
32.44712473405525	0.7977633001282811	2	49	1134048.194	87.5	0.8413029999937862	2	0
33.24488803418353	0.7982880999334157	2	49	1134048.84	93.75	0.6892075000796467	1	0
34.04317613411695	0.8010436999611557	1	0	0	0	0	0	0
34.84421983	0.7980537000112236	2	49	1134050.482	100	0.7321313000284135	1	0
35.64227353408933	0.8004954000934958	1	0	0	0	0	0	0
36.44276893418282	0.799738	2	49	1134051.911	75	0.5628760000690818	1	0
37.24250693409704	0.8008241001516581	2	49	1134052.919	93.75	0.7711470001377165	2	0
38.043331034248695	0.7980245999060571	2	49	1134053.612	87.5	0.6632552000228316	1	0
38.84135563415475	0.7993385000154376	1	49	1134054.498	100	0.7514078998938203	1	0
39.64069413417019	0.7990476998966187	2	49	1134055.214	87.5	0.6680022000800818	1	0
40.43974183406681	0.7986497001256794	2	49	1134056.183	87.5	0.8379600001499057	2	0
41.23839153419249	0.7984666000120342	2	49	1134057.148	68.75	1.0041877999901772	2	0
42.03685813420452	0.8006181998644024	2	49	1134057.662	93.75	0.7192053999751806	1	0
42.837476334068924	0.7997489999979734	2	49	1134058.361	81.25	0.6176554001867771	1	0
43.63722533	0.8002410000190139	2	49	1134059.518	68.75	0.9755026001948863	2	0
44.43746633408591	0.7977006000000983	2	49	1134060.138	93.75	0.7947541000321507	2	0
45.23516693408601	0.7996194001752883	2	49	1134060.805	87.5	0.6644874999765307	1	0
46.03478633	0.7992679998278618	2	49	1134061.544	81.25	0.6032208998221904	1	0
46.83405433408916	0.7999176001176238	1	0	0	0	0	0	0
47.633971934206784	0.7992523000575602	2	49	1134063.146	81.25	0.6068557999096811	1	0
48.433224234264344	0.7998637999407947	2	49	1134064.329	68.75	0.9901593998074532	2	0
49.23308803420514	0.7975995000451803	2	49	1134064.773	87.5	0.6340797	1	0
50.03068753425032	0.8004367	2	49	1134065.818	81.25	0.8813490997999907	2	0
50.83112423424609	0.7989032999612391	2	49	1134066.45	93.75	0.7136336998082697	1	0
51.63002753420733	0.7975204000249505	2	49	1134067.356	87.5	0.8209627000615001	2	0
52.42754793423228	0.7995875999331474	1	0	0	0	0	0	0
53.22713553416543	0.7994713999796659	2	49	1134068.818	93.75	0.6851019999012351	1	0
54.02660693414509	0.7989384999964386	2	49	1134069.663	100	0.7313801001291722	1	0
54.82554543414153	0.7999233999289572	2	49	1134070.43	93.75	0.6990134	1	0
55.62546883407049	0.7976719001308084	2	49	1134071.128	81.25	0.5970745000522584	1	0
56.42314073	0.7982844000216573	2	49	1134072.203	81.25	0.8748421999625862	2	0
57.221425134222955	0.7985133	1	0	0	0	0	0	0
58.01993843424134	0.7985535999760032	2	49	1134073.514	81.25	0.5884608	1	0
58.81849203421734	0.7983897998929024	2	49	1134074.335	81.25	0.6106813999358565	1	0
59.616881834110245	0.7977897000964731	2	49	1134075.344	87.5	0.8213236001320183	2	0
60.41467153420672	0.7983117999974638	2	49	1134076.362	62.5	1.0419141000602394	2	0
61.21298333420418	0.7997177999932319	2	49	1134077.229	56.25	1.1106409998610616	2	0
62.012701134197414	0.7989254000131041	1	49	1134077.97	62.5	1.051430799998343	2	0
62.81162653421052	0.8005301998928189	2	49	1134078.554	87.5	0.8364078998565674	2	0
63.61215673410334	0.7994862000923604	2	49	1134079.43	81.25	0.9121821001172066	2	0
64.41164293	0.7994556999765337	2	49	1134080.094	93.75	0.7768311998806894	2	0
65.21109863417223	0.7979319000151008	2	49	1134080.893	93.75	0.7761347000487149	2	0
66.00903053418733	0.7999303999822587	2	49	1134081.849	75	0.9345784999895841	2	0
66.80896093416959	0.8004624000750482	2	49	1134082.812	56.25	1.0971470999065787	2	0
67.60942333424464	0.7985639998223633	2	49	1134083.689	43.75	1.173816799884662	2	0
68.40798733	0.7996678000781685	2	0	0	0	0	0	0
69.20765513414517	0.7998299999162555	2	49	1134084.748	87.5	0.6348558999598026	1	0
70.00748513406143	0.7980456000659615	2	49	1134085.774	87.5	0.8606901001185179	2	0
70.80553073412739	0.7975163001101464	2	0	0	0	0	0	0
71.60304703423753	0.7998006998095661	2	49	1134087.39	81.25	0.8814699000213295	2	0
72.40284773	0.7994403000921011	2	49	1134088.226	81.25	0.9178313000593334	2	0
73.20228803	0.8014100999571383	2	49	1134088.83	100	0.7223716999869794	1	0
74.00369813409634	0.7981949001550674	2	49	1134089.803	81.25	0.8937948001548648	2	0
74.80189303	0.7995215998962522	2	49	1134090.92	43.75	1.2127952999435365	2	0
75.60141463414766	0.7986367999110371	2	49	1134091.572	62.5	1.0651018999051303	2	0
76.40005143	0.7995021000970155	2	49	1134092.325	68.75	1.0189962000586092	2	0
77.19955353415571	0.7984235000330955	2	49	1134093.059	75	0.9541003999765962	2	0
77.99797703	0.7980629000812769	2	49	1134093.678	93.75	0.7746631999034435	2	0
78.79603993427008	0.7990539998281747	2	49	1134094.563	87.5	0.8612856999970973	2	0
79.59509393409826	0.7984537000302225	2	49	1134095.303	93.75	0.8025738000869751	2	0
80.39354763412848	0.7992928000167012	2	49	1134096.098	93.75	0.7992771	2	0
81.19284043414518	0.8231359999626875	2	49	1134096.923	93.75	0.8250434000510722	2	0
82.01597643410787	0.7998395001050085	1	0	0	0	0	0	0
82.81581593421288	0.7986099000554532	2	49	1134098.613	81.25	0.8919998998753726	2	0
83.61442583426833	0.8001899998635054	2	49	1134099.295	93.75	0.7754231998696923	2	0
84.41461583413184	0.7986008001025766	2	49	1134100.011	93.75	0.6904207000043243	1	0
85.21321663423441	0.7985153	2	49	1134101.237	56.25	1.1183159998618066	2	0
86.01173193426803	0.7981397998519242	2	49	1134101.801	81.25	0.8842206997796893	2	0
86.80987173411995	0.7988877999596298	1	0	0	0	0	0	0
87.60875953407958	0.7988932	2	49	1134103.177	87.5	0.6624027001671493	1	0
88.40765273408033	0.7992426001001149	2	49	1134104.012	93.75	0.6991777999792248	1	0
89.20689533418044	0.7977809000294656	2	49	1134104.882	93.75	0.7694633998908103	2	0
90.00467623420991	0.7989888000302017	2	49	1134105.799	81.25	0.8888344999868423	2	0
90.80366503424011	0.7992040999233723	2	49	1134106.585	81.25	0.8763112998567522	2	0
91.60286913416348	0.8006666000001132	1	49	1134107.521	68.75	1.0129535000305623	2	0
92.40353573	0.7997789001092315	2	49	1134108.28	75	0.970643	2	0
93.20331463427283	0.7998431	1	0	0	0	0	0	0
94.00315773417242	0.7977493999060243	1	49	1134109.464	75	0.5549641000106931	1	0
94.80090713407844	0.7992128001060337	2	49	1134110.897	43.75	1.190207300009206	2	0
95.60011993418448	0.7987134	2	49	1134111.259	100	0.7533976000268012	1	0
96.39883333421312	0.7989429999142885	2	49	1134112.007	93.75	0.7025484999176115	1	0
97.19777633412741	0.7984486001078039	2	49	1134112.778	93.75	0.6742589001078159	1	0
97.99622493423522	0.7990009998902678	2	49	1134113.569	87.5	0.6671722999308258	1	0
98.79522593412548	0.7983000001404434	1	49	1134114.529	87.5	0.8280271000694484	2	0
99.59352593426593	0.7985753999091685	2	49	1134115.471	68.75	0.9718194999732077	2	0
100.3921013341751	0.7977294998709112	2	49	1134116.048	100	0.7502367000561208	1	0
101.1898308	0.7996373001951724	2	49	1134116.772	93.75	0.6764951	1	0
101.98946813424118	0.7974040999542922	2	49	1134117.851	75	0.9561367998830974	2	0
102.78687223419547	0.7975310999900103	2	49	1134118.281	81.25	0.5890301999170333	1	0
103.58440333418548	0.7977181000169367	1	0	0	0	0	0	0
104.38212143420242	0.8000129999127239	2	49	1134119.899	81.25	0.6116748999338597	1	0
105.18213443411514	0.8001178000122309	2	49	1134121.087	68.75	0.9995816999580711	2	0
105.98225223412737	0.7999110000673681	2	49	1134121.55	87.5	0.6626673999708146	1	0
106.78216323419474	0.7968965000472963	2	49	1134122.438	100	0.7502949	1	0
107.57905973424204	0.7996385998558253	2	49	1134123.662	43.75	1.1771048000082374	2	0
108.37869833409786	0.7985223999712616	2	49	1134124.298	68.75	1.0139446000102907	2	0
109.17722073406912	0.7986415000632405	2	49	1134124.852	93.75	0.7695861000102013	2	0
109.97586223413236	0.8010462000966072	2	49	1134125.686	93.75	0.8046808000653982	2	0
110.77690843422897	0.800229	2	49	1134126.433	100	0.7506855998653919	1	0
111.57713743415661	0.8000975	2	49	1134127.041	75	0.5578570000361651	1	0
112.37723493413068	0.7991899000480771	2	49	1134127.943	87.5	0.6606823	1	0
113.17642483417876	0.7975823	2	49	1134128.832	100	0.7501715999096632	1	0
113.97400713409297	0.8025340000167489	2	49	1134129.831	75	0.9517681000288576	2	0
114.77654113410972	0.7983131	2	49	1134130.41	100	0.7284121999982744	1	0
115.5748542342335	0.7997969998978078	2	49	1134131.318	87.5	0.8378131999634206	2	0
116.3746512341313	0.8007900000084192	2	49	1134132.43	50	1.1499050999991596	2	0
117.17544123413973	0.7997322001028806	2	49	1134132.852	100	0.7713530999608338	1	0
117.9751734342426	0.7981871999800205	2	49	1134133.772	81.25	0.8909738999791443	2	0
118.77336063422263	0.7997053	2	49	1134134.345	87.5	0.6663106998894364	1	0
119.57306593423709	0.7971448998432606	2	49	1134135.22	100	0.7409663000144064	1	0
120.37021083408035	0.7977163000032306	2	49	1134136.142	87.5	0.8667223	2	0
121.16792713408358	0.7992935001384467	1	0	0	0	0	0	0
121.96722063422203	0.7987674998585135	1	49	1134137.518	87.5	0.6454368999693543	1	0
122.76598813408054	0.7998031000606716	2	49	1134138.671	68.75	0.9999926001764834	2	0
123.56579123414122	0.7981721	2	0	0	0	0	0	0
124.36396333412267	0.7992165	2	49	1134139.92	87.5	0.6501927000936121	1	0
125.16317983414046	0.8006474000867456	2	49	1134140.736	87.5	0.6668334999121726	1	0
125.96382723422721	0.7991167998407036	2	49	1134141.641	93.75	0.7719360999763012	2	0
126.76294403406791	0.7981865000911057	2	49	1134142.618	75	0.9491419000551105	2	0
127.56113053415902	0.8008981999009848	2	49	1134143.266	93.75	0.7991496999748051	2	0
128.3620287	0.7992060000542551	2	49	1134144.243	68.75	0.9749699	2	0
129.16123473411426	0.7995137	2	49	1134145.035	75	0.9678754999767989	2	0
129.96074843406677	0.7995198001153767	2	49	1134145.951	56.25	1.0843780001159757	2	0
130.76026823418215	0.7988908998668194	2	49	1134146.541	81.25	0.8748578000813723	2	0
131.55915913404897	0.7990518000442535	2	49	1134147.504	62.5	1.039147200062871	2	0
132.35821093409322	0.7981183000374585	1	0	0	0	0	0	0
133.15632923413068	0.7973611999768764	1	0	0	0	0	0	0
133.95369043410756	0.8005454000085592	2	49	1134149.759	81.25	0.9000538000836968	2	0
134.75423583411612	0.7999527000356466	2	49	1134150.648	68.75	0.9880123001057655	2	0
135.55418853415176	0.7986683999188244	2	49	1134151.094	87.5	0.6341003999114037	1	0
136.3528569340706	0.7983734000008553	1	0	0	0	0	0	0
137.15123033407144	0.7978561001364142	2	49	1134152.88	87.5	0.8231189001817256	2	0
137.94908643420786	0.7989620000589639	2	49	1134153.665	93.75	0.8108430998399854	2	0
138.74804843426682	0.7979677999392152	2	49	1134154.678	62.5	1.0244697998277843	2	0
139.54601623420604	0.7998899000231177	2	49	1134155.423	68.75	0.9716612	2	0
140.34590613422915	0.7973223999142647	2	49	1134156.167	81.25	0.9156486999709159	2	0
141.14322853414342	0.7981187999248505	2	49	1134157.258	43.75	1.2095349999144673	2	0
141.94134733406827	0.7987934001721442	2	0	0	0	0	0	0
142.7401407342404	0.7979423999786377	2	49	1134158.151	68.75	0.5052741998806596	1	0
143.53808313421905	0.7988171000033617	2	49	1134159.015	81.25	0.5716257998719811	1	0
144.3369002342224	0.7987978998571634	2	49	1134160.255	68.75	1.0128667999524623	2	0
145.13569813407958	0.7987193001899868	2	49	1134160.753	93.75	0.7117846000473946	1	0
145.93441743426956	0.7991328998468816	2	49	1134161.881	62.5	1.0412598999682814	2	0
146.73355033411644	0.7999219000339508	2	49	1134162.463	87.5	0.8235341000836343	2	0
147.5334722341504	0.7996751999016851	2	49	1134163.568	50	1.1291288000065833	2	0
148.33314743405208	0.7991608001757413	2	49	1134164.123	81.25	0.8845224000979215	2	0
149.13230823422782	0.7974558998830616	2	49	1134165.014	68.75	0.9764527999795973	2	0
149.92976413411088	0.7985030000563711	2	0	0	0	0	0	0
150.72826713416725	0.8007606999017298	2	49	1134166.269	87.5	0.6355580000672489	1	0
151.52902783406898	0.800281	2	49	1134167.127	93.75	0.6920194001868367	1	0
152.32930883415975	0.7987881998997182	2	49	1134168.074	87.5	0.8389983999077231	2	0
153.12809703405946	0.7992378000635654	2	49	1134168.697	87.5	0.6638448000885546	1	0
153.92733483412303	0.7995811000000685	1	0	0	0	0	0	0
154.7269159341231	0.7994015000294894	1	0	0	0	0	0	0
155.5263174341526	0.7983220999594778	2	49	1134171.419	68.75	0.9870408999267966	2	0
156.32463953411207	0.7999897000845522	2	49	1134171.822	81.25	0.5916004001628608	1	0
157.12462923419662	0.7973056000191718	2	49	1134172.816	93.75	0.7856211999896914	2	0
157.9219348342158	0.7983568999916315	2	49	1134173.556	100	0.7280834000557661	1	0
158.72029173420742	0.7986287	2	49	1134174.388	100	0.7626978999469429	1	0
159.5189204341732	0.7994025000371039	2	49	1134175.225	93.75	0.8000711	2	0
160.3183229342103	0.8003811999224126	2	49	1134176.287	62.5	1.0631951000541449	2	0
161.1187041341327	0.7998639999423176	2	49	1134177.185	50	1.160961400019005	2	0
161.91856813407503	0.8005342001561075	2	49	1134177.954	50	1.1304134000092745	2	0
162.71910233423114	0.7991253000218421	2	0	0	0	0	0	0
163.51822763425298	0.7992412999738008	2	49	1134179.352	75	0.9280671998858452	2	0
164.31746893422678	0.7996965998318046	2	49	1134179.936	93.75	0.7128550000488758	1	0
165.11716553405859	0.7968814000487328	1	49	1134180.613	81.25	0.5902095001656562	1	0
165.91404693410732	0.7996585	2	49	1134181.861	62.5	1.0411970999557525	2	0
166.7137054342311	0.7985794998239726	2	49	1134182.388	100	0.7686813999898732	1	0
167.51228493405506	0.7979357000440359	2	49	1134183.145	100	0.7268833999987692	1	0
168.3102206340991	0.7991047000978142	1	0	0	0	0	0	0
169.1093253341969	0.799475	1	0	0	0	0	0	0
169.9088003	0.7979329999070615	2	49	1134185.529	93.75	0.7145626000128686	1	0
170.70673333411105	0.7989902	2	49	1134186.383	93.75	0.7709562000818551	2	0
171.5057235341519	0.7970797000452876	2	49	1134187.159	100	0.7478585001081228	1	0
172.3028032341972	0.7983788999263197	2	49	1134187.761	75	0.5524796999525279	1	0
173.10118213412352	0.8002802000846714	1	49	1134188.772	100	0.7651752999518067	1	0
173.9014623342082	0.7981690999586135	2	49	1134189.474	87.5	0.6671253000386059	1	0
174.6996314341668	0.7984400999266654	2	49	1134190.248	87.5	0.6431586	1	0
175.49807153409347	0.8011213999707252	2	49	1134191.183	93.75	0.7794193001464009	2	0
176.2991929340642	0.7996817000675946	2	49	1134191.909	93.75	0.7042798001784831	1	0
177.0988746341318	0.8003761	1	0	0	0	0	0	0
177.89925073413178	0.7993209001142532	2	49	1134193.123	43.75	0.31829959992319345	1	0
178.69857163424604	0.8012192000169307	2	49	1134194.403	93.75	0.7984865999314934	2	0
179.49979083426297	0.7995285999495536	2	49	1134195.542	50	1.136348499916494	2	0
180.29931943421252	0.7987593999132514	2	0	0	0	0	0	0
181.09807883412577	0.7997469000983983	2	49	1134196.975	68.75	0.9711581999436021	2	0
181.89782573422417	0.7985204998403788	2	49	1134197.829	62.5	1.0257311998866498	2	0
182.69634623406455	0.7989755000453442	2	49	1134198.433	87.5	0.8308217	2	0
183.4953217341099	0.8003545999526978	2	49	1134199.417	68.75	1.0158280001487583	2	0
184.2956763340626	0.7981218001805246	2	49	1134200.242	62.5	1.0412183001171798	2	0
185.09379813424312	0.7998020998202264	2	49	1134201.042	62.5	1.0429622000083327	2	0
185.89360023406334	0.7988072000443935	2	49	1134201.649	87.5	0.8500682001467794	2	0
186.69240743410774	0.8003457000013441	2	49	1134202.29	93.75	0.6923448999878019	1	0
187.49275313410908	0.7991786999627948	2	49	1134203.338	75	0.9400607000570744	2	0
188.29193183407187	0.7989615	1	0	0	0	0	0	0
189.09089333424345	0.7980262998025864	2	0	0	0	0	0	0
189.88891963404603	0.7977124000899494	2	49	1134206.119	25	1.324922600062564	2	0
190.68663203413598	0.799568	2	49	1134206.439	87.5	0.8468176000751555	2	0
191.48620003415272	0.7977138999849558	2	49	1134207.027	87.5	0.6352379999589175	1	0
192.28391393413767	0.7988613001070917	2	49	1134207.848	87.5	0.6584542000200599	1	0
193.08277523424476	0.7995155998505652	2	49	1134208.54	75	0.5521305999718606	1	0
193.88229083409533	0.7999227000400424	2	49	1134209.713	75	0.9256737001705915	2	0
194.68221353413537	0.7994568001013249	1	49	1134210.562	68.75	0.9738816	2	0
195.4816703342367	0.8000156998168677	2	49	1134211.263	81.25	0.8754773000255227	2	0
196.28168603405356	0.7984910001978278	2	49	1134211.926	100	0.7384628001600504	1	0
197.0801770342514	0.8009689999744296	2	49	1134212.698	93.75	0.7126337999943644	1	0
197.88114603422582	0.7980173998512328	2	49	1134213.96	43.75	1.1730533000081778	2	0
198.67916343407705	0.7984210001304746	1	0	0	0	0	0	0
199.47758443420753	0.7996096999850124	2	49	1134215.173	93.75	0.7896934000309557	2	0
200.27719413419254	0.7994874999858439	1	0	0	0	0	0	0
201.07668163417839	0.7989179000724107	1	0	0	0	0	0	0
201.8755995342508	0.8007658999413252	2	49	1134217.748	75	0.9670006998348981	2	0
202.67636543419212	0.7985032	1	0	0	0	0	0	0
203.47486863425002	0.7995424	2	49	1134219.349	75	0.9683757999446243	2	0
204.27441103407182	0.7996642000507563	2	49	1134219.925	100	0.7450571001973003	1	0
205.07407523412257	0.7998591000214219	2	49	1134221.193	43.75	1.2132158000022173	2	0
205.8739343	0.7978221999946982	2	49	1134221.855	56.25	1.0755787999369204	2	0
206.6717565341387	0.7991843000054359	2	49	1134222.427	87.5	0.8497789	2	0
207.47094083414413	0.7991375999990851	1	49	1134223.368	68.75	0.9917998	2	0
208.27007843414322	0.7968266000971198	2	0	0	0	0	0	0
209.06690503424034	0.7985155999194831	2	0	0	0	0	0	0
209.86542063415982	0.7969259999226779	2	0	0	0	0	0	0
210.6623466340825	0.7987960001919419	2	0	0	0	0	0	0
211.46114263427444	0.7981536998413503	1	0	0	0	0	0	0
212.2592963341158	0.7997511001303792	2	49	1134227.77	81.25	0.6052085000555962	1	0
213.05904743424617	0.7982703000307083	1	49	1134228.653	93.75	0.6885840999893844	1	0
213.85731773427688	0.7983433997724205	2	49	1134229.767	68.75	1.0037063998170197	2	0
214.6556611340493	0.7972831001970917	2	49	1134230.231	93.75	0.6701229000464082	1	0
215.4529442342464	0.8006482999771833	1	49	1134231.289	75	0.9304984000045806	2	0
216.25359253422357	0.7998240999877453	2	49	1134232.481	31.25	1.3221891999710351	2	0
217.05341663421132	0.800799	1	0	0	0	0	0	0
217.85421563405544	0.7981567000970244	2	49	1134233.732	68.75	0.9725539002101868	2	0
218.65237233415246	0.79736	2	49	1134234.536	68.75	0.9783427999354899	2	0
219.4497323341202	0.7997626001015306	2	49	1134235.375	62.5	1.0201445000711828	2	0
220.24949493422173	0.8020186999347061	2	49	1134236.183	62.5	1.0282550000119954	2	0
221.05151363415644	0.8005558	1	49	1134236.928	75	0.9713165001012385	2	0
221.85206943424419	0.7981122999917716	2	49	1134237.658	81.25	0.9008192999754101	2	0
222.65018173423596	0.8003446999937296	2	49	1134238.547	68.75	0.9916193999815732	2	0
223.4505264342297	0.7981779000256211	1	0	0	0	0	0	0
224.2487043342553	0.8001235998235643	2	49	1134239.91	100	0.7561353999190032	1	0
225.04882793407887	0.8002862001303583	2	49	1134240.892	75	0.9379728001076728	2	0
225.84911413420923	0.8007865999825299	2	49	1134241.651	81.25	0.8959655000362545	2	0
226.64990073419176	0.7973790999967605	2	49	1134242.393	87.5	0.8380624998826534	2	0
227.44727983418852	0.7987786000594497	2	49	1134243.327	68.75	0.9737306998576969	2	0
228.24605843424797	0.7996364999562502	2	49	1134243.947	93.75	0.7956348999869078	2	0
229.04569493420422	0.8001977000385523	2	49	1134245.137	43.75	1.1857199999503791	2	0
229.84589263424277	0.7996145	1	0	0	0	0	0	0
230.64550713426434	0.7987938998267055	2	49	1134246.363	93.75	0.8118603997863829	2	0
231.44430103409104	0.7979018001351506	2	49	1134247.702	25	1.3519322001375258	2	0
232.2422028342262	0.8014036999084055	2	49	1134248.006	87.5	0.8584561	2	0
233.0436065341346	0.7976478000637144	2	0	0	0	0	0	0
233.8412543341983	0.7979039000347257	2	49	1134249.337	81.25	0.5899608000181615	1	0
234.63915823423304	0.8000674	2	49	1134250.086	75	0.5414554998278618	1	0
235.43922563409433	0.7982199001125991	2	49	1134251.307	75	0.9622000001836568	2	0
236.23744553420693	0.7984926998615265	2	49	1134251.984	87.5	0.8408110998570919	2	0
237.03593823406845	0.7981850001960993	2	49	1134253.07	50	1.1283732000738382	2	0
237.83412323426455	0.7999586998485029	2	49	1134253.768	62.5	1.0282430998049676	2	0
238.63408193411306	0.7976759001612663	2	49	1134254.298	100	0.7585793000180274	1	0
239.43175783427432	0.8005489998031408	2	49	1134255.491	50	1.1537066998425871	2	0
240.23230683407746	0.7985338000580668	2	49	1134255.926	93.75	0.7881895999889821	2	0
241.03084063413553	0.7997405000496656	2	49	1134256.758	93.75	0.8217895999550819	2	0
241.8305811341852	0.7972190999425948	2	49	1134257.964	37.5	1.2277635999489576	2	0
242.6278002341278	0.7978487000800669	2	49	1134258.477	75	0.9440614001359791	2	0
243.42564893420786	0.7981890998780727	1	0	0	0	0	0	0
244.22383803408593	0.7986703000497073	2	49	1134260.04	81.25	0.9107425999827683	2	0
245.02250833413564	0.7990739999804646	2	49	1134260.982	62.5	1.0540631001349539	2	0
245.8215823341161	0.7983079000841826	2	0	0	0	0	0	0
246.61989023420028	0.8023443	2	0	0	0	0	0	0
247.42223453405313	0.8003655	2	49	1134263.473	50	1.1448115000966936	2	0
248.22260003420524	0.7994216000661254	1	49	1134264.28	50	1.1520773000083864	2	0
249.02202163427137	0.8002400998957455	1	0	0	0	0	0	0
249.8222617341671	0.8003018999006599	1	0	0	0	0	0	0
250.62256363406777	0.7982642999850214	1	0	0	0	0	0	0
251.4208279340528	0.7991176000796258	2	49	1134267.083	100	0.7570592002011836	1	0
252.21994553413242	0.7986840000376105	2	49	1134267.876	100	0.7507738000713289	1	0
253.01862953417003	0.7970755000133067	2	49	1134268.748	87.5	0.8240634999237955	2	0
253.81570503418334	0.8014635	2	49	1134269.544	93.75	0.8227794000413269	2	0
254.61716853408143	0.7998679000884295	2	49	1134270.38	87.5	0.8568909000605345	2	0
255.41703643416986	0.7983367999549955	2	49	1134271.1	93.75	0.7777223000302911	2	0
256.21537323412485	0.8002491	2	49	1134271.785	87.5	0.6644725000951439	1	0
257.01562233408913	0.7986789999995381	2	49	1134272.836	81.25	0.9152709001209587	2	0
257.81430133408867	0.7980236001312733	2	49	1134273.76	62.5	1.0397561001591384	2	0
258.61232493421994	0.7996648	2	49	1134274.518	68.75	1.0002441999968141	2	0
259.41198973427527	0.7977365998085588	2	49	1134275.152	87.5	0.8349574999883771	2	0
260.2097263340838	0.7985279001295567	1	0	0	0	0	0	0
261.0082542342134	0.7990991	2	49	1134277.205	31.25	1.290923099964857	2	0
261.80735333426856	0.8004451999440789	2	49	1134277.576	87.5	0.8630257998593152	2	0
262.60779853421263	0.7988175998907536	2	49	1134278.298	93.75	0.7842951999045908	2	0
263.4066161341034	0.7992875000927597	2	49	1134279.316	68.75	1.003522700164467	2	0
264.20590363419615	0.7988517000339925	2	0	0	0	0	0	0
265.00475533423014	0.7997399000450969	2	0	0	0	0	0	0
265.80449523427524	0.7999446999747306	2	49	1134281.437	100	0.7265389999374747	1	0
266.60443993424997	0.7988583999685943	2	49	1134282.294	93.75	0.7838713999371976	2	0
267.40329833421856	0.7982431000564247	2	49	1134283.135	87.5	0.8258541999384761	2	0
268.2015414	0.7978441999293864	2	49	1134284.094	68.75	0.9871518998406827	2	0
268.9993856342044	0.8004254999104887	2	49	1134285.112	43.75	1.2068628000561148	2	0
269.79981113411486	0.7994574001058936	1	0	0	0	0	0	0
270.59926853422076	0.8000429000239819	2	49	1134286.435	75	0.9300446000415832	2	0
271.39931143424474	0.7994986998382956	2	49	1134287.367	62.5	1.062273500021547	2	0
272.19881013408303	0.8004075000062585	2	0	0	0	0	0	0
272.9992176340893	0.7992469000164419	2	49	1134288.336	62.5	0.43101519998162985	1	0
273.79846453410573	0.8002716000191867	2	49	1134289.223	68.75	0.5193446001503617	1	0
274.5987361341249	0.7977062999270856	2	49	1134290.205	93.75	0.7005275001283735	1	0
275.3964424	0.8010816001333296	2	49	1134291.256	75	0.9539112001657486	2	0
276.19752403418534	0.7982558000367135	2	0	0	0	0	0	0
276.99577983422205	0.7986377999186516	2	49	1134292.916	68.75	1.0151577999349684	2	0
277.7944176341407	0.7978166	1	0	0	0	0	0	0
278.59223423409276	0.7987898	2	49	1134294.592	56.25	1.0941479001194239	2	0
279.3910240342375	0.8006047999951988	2	49	1134295.451	50	1.1547262000385672	2	0
280.1916288342327	0.7989566999021918	2	0	0	0	0	0	0
280.9905855341349	0.7987878	2	49	1134296.934	62.5	1.0379407999571413	2	0
281.7893733342644	0.8009304997976869	2	0	0	0	0	0	0
282.59030383406207	0.7974034000653774	2	0	0	0	0	0	0
283.38770723412745	0.7985688000917435	2	49	1134299.131	87.5	0.8378745000809431	2	0
284.1862760342192	0.7970540998503566	2	49	1134300.099	68.75	1.0075850000139326	2	0
284.98333013406955	0.7987098000012338	2	49	1134301.05	50	1.1609395002014935	2	0
285.7820399340708	0.8007223000749946	2	0	0	0	0	0	0
286.5827622341458	0.7990049999207258	2	49	1134301.941	62.5	0.4528900000732392	1	0
287.3817672340665	0.7980223000049591	2	49	1134303.113	87.5	0.8260770000051707	2	0
288.17978953407146	0.7988942000083625	2	49	1134304.175	56.25	1.0895725002046674	2	0
288.9786837340798	0.7977279999759048	2	49	1134304.923	62.5	1.0391903000418097	2	0
289.7764117340557	0.7987431001383811	2	49	1134305.393	93.75	0.7110709000844508	1	0
290.5751548341941	0.7991599	2	49	1134306.609	50	1.1278478000313044	2	0
291.3743147342466	0.7994424998760223	2	49	1134307.19	81.25	0.9096919998992234	2	0
292.1737572341226	0.7990954001434147	2	49	1134307.838	100	0.7586540000047535	1	0
292.9728526	0.7992186998017132	2	49	1134308.602	100	0.7239754998590797	1	0
293.77207133406773	0.7983964001759887	2	49	1134309.369	93.75	0.6909653001930565	1	0
294.5704677342437	0.7996155999135226	2	49	1134310.328	87.5	0.8525105998851359	2	0
295.37008333415724	0.7998363000806421	2	49	1134311.235	75	0.9591477999929339	2	0
296.1699196342379	0.7981822998262942	2	49	1134311.957	81.25	0.8812051999848336	2	0
296.9681019340642	0.8002665000967681	2	49	1134312.886	68.75	1.0122826001606882	2	0
297.76836843416095	0.7986035998910666	2	49	1134313.819	50	1.1452460999134928	2	0
298.566972	0.7988106000702828	2	49	1134314.216	100	0.7431877001654357	1	0
299.3657826341223	0.8006766999606043	2	49	1134315.124	87.5	0.8524347001221031	2	0
300.1664593340829	0.7991560001391917	2	49	1134316.021	75	0.9486891000997275	2	0
300.9656153342221	0.7980187998618931	2	49	1134316.752	81.25	0.8811659999191761	2	0
301.7636341	0.7996044000610709	2	0	0	0	0	0	0
302.56323853414506	0.7996696999762207	2	49	1134317.983	68.75	0.5146743000950664	1	0
303.3629082341213	0.8010607	2	49	1134318.895	87.5	0.6263482000213116	1	0
304.1639689342119	0.7987984	2	49	1134319.904	87.5	0.8349830000661314	2	0
304.96276733418927	0.7976969	1	49	1134320.9	62.5	1.0313452000264078	2	0
305.7604642342776	0.797308	2	49	1134321.76	56.25	1.094172399956733	2	0
306.5577722340822	0.8006092000287026	1	0	0	0	0	0	0
307.3583814341109	0.7997396001592278	2	49	1134323.247	68.75	0.9835976001340896	2	0
308.15812103427015	0.7984213	2	49	1134323.851	93.75	0.7877252	2	0
308.95654233405367	0.7991540001239628	2	49	1134324.856	68.75	0.9938996999990195	2	0
309.7556963341776	0.7978739999234676	1	0	0	0	0	0	0
310.5535703341011	0.7996331001631916	2	49	1134326.179	93.75	0.7200090000405908	1	0
311.3532034342643	0.7980756	2	49	1134327.193	75	0.9340354998130351	2	0
312.151279	0.7998353999573737	2	49	1134328.032	68.75	0.9752931999973953	2	0
312.9511144340504	0.8013722	2	49	1134328.68	87.5	0.8234327000100166	2	0
313.7524866340682	0.7978733000345528	2	0	0	0	0	0	0
314.55035993410274	0.7980647999793291	2	49	1134330.084	87.5	0.6281067000236362	1	0
315.3484247340821	0.7987301000393927	2	49	1134331.328	56.25	1.0740845000836998	2	0
316.14715483412147	0.8008741000667214	2	49	1134332.067	68.75	1.0140293000731617	2	0
316.9480289341882	0.7992624999023974	2	49	1134332.866	68.75	1.0128434000071138	2	0
317.7472914340906	0.7981837000697851	2	49	1134333.841	43.75	1.1882482999935746	2	0
318.54547513416037	0.7989491000771523	2	49	1134334.247	93.75	0.7963757999241352	2	0
319.3444242342375	0.8005758000072092	2	49	1134335.087	87.5	0.8372688998933882	2	0
320.14500003424473	0.7980718000326306	2	0	0	0	0	0	0
320.94307183427736	0.7997015	2	49	1134336.822	68.75	0.9729911999311298	2	0
321.7427733342629	0.7990563998464495	2	49	1134337.75	56.25	1.1020806999877095	2	0
322.54182973410934	0.8023697000462562	2	0	0	0	0	0	0
323.3441994341556	0.8011060999706388	2	49	1134338.671	62.5	0.42161140008829534	1	0
324.14530553412624	0.7978819999843836	2	49	1134340.077	62.5	1.0265637000557035	2	0
324.9431875341106	0.7992458001244813	2	49	1134340.535	93.75	0.6865131000522524	1	0
325.7424333342351	0.7997103999368846	2	49	1134341.529	81.25	0.8815258999820799	2	0
326.5421437	0.8000926999375224	2	0	0	0	0	0	0
327.3422364341095	0.7972492000553757	2	49	1134342.966	93.75	0.7184785001445562	1	0
328.1394856341649	0.7989236998837441	1	0	0	0	0	0	0
328.93840933404863	0.7996597001329064	1	0	0	0	0	0	0
329.73806903418154	0.7993739	2	49	1134345.516	81.25	0.8721129	2	0
330.5374429342337	0.7989554000087082	2	49	1134346.215	93.75	0.7725181998685002	2	0
331.3363983342424	0.7992769000120461	2	49	1134347.122	81.25	0.8796075999271125	2	0
332.13567523425445	0.8008910999633372	2	49	1134347.948	81.25	0.9066673999186605	2	0
332.9365663342178	0.7992370999418199	2	0	0	0	0	0	0
333.7358034341596	0.8002428	2	49	1134349.253	81.25	0.6116416999138892	1	0
334.5360462341923	0.7974226	1	49	1134350.452	68.75	1.0100338999181986	2	0
335.3334688341711	0.7971568000502884	2	0	0	0	0	0	0
336.13062563422136	0.7983048998285085	2	49	1134352.073	62.5	1.0369183998554945	2	0
336.92893053404987	0.8007646000478417	2	49	1134353.002	50	1.1673871001694351	2	0
337.7296951340977	0.7994399000890553	2	0	0	0	0	0	0
338.52913503418677	0.7998933999333531	2	49	1134354.422	68.75	0.9870344998780638	2	0
339.3290284341201	0.8003491000272334	2	49	1134355.104	87.5	0.8695078000891954	2	0
340.12937753414735	0.8001689999364316	2	0	0	0	0	0	0
340.9295465340838	0.7981251999735832	1	0	0	0	0	0	0
341.72767173405737	0.7985995002090931	2	49	1134357.413	93.75	0.7795689001213759	2	0
342.52627123426646	0.7993550999090075	2	49	1134358.28	87.5	0.8480626998934895	2	0
343.32562633417547	0.7995436999481171	2	49	1134359.242	68.75	1.0104324999265373	2	0
344.1251700341236	0.7973277000710368	2	49	1134360.203	43.75	1.1722004001494497	2	0
344.9224977341946	0.7973940998781472	2	49	1134360.998	50	1.169678800040856	2	0
345.71989183407277	0.8008312000893056	2	49	1134361.708	56.25	1.0821001001168042	2	0
346.5207230341621	0.7970471999142319	2	49	1134362.507	56.25	1.0810557000804693	2	0
347.3177702340763	0.8002883000299335	2	49	1134362.959	100	0.7358003000263125	1	0
348.11805853410624	0.7993083000183105	1	0	0	0	0	0	0
348.91736683412455	0.7985336999408901	2	49	1134364.406	81.25	0.5831148000434041	1	0
349.71590053406544	0.7977001001127064	2	49	1134365.455	87.5	0.8335114000365138	2	0
350.51360063417815	0.7994178999215364	2	49	1134366.447	62.5	1.028155199950561	2	0
351.3130185340997	0.7970513999462128	2	49	1134367.347	50	1.128650899976492	2	0
352.1100699340459	0.8006076000165194	2	49	1134368.138	50	1.1227759001776576	2	0
352.9106775340624	0.7985259001143277	2	49	1134368.972	50	1.1562872000504285	2	0
353.70920343417674	0.8013037999626249	2	0	0	0	0	0	0
354.51050723413937	0.7964087000582367	1	0	0	0	0	0	0
355.3069159341976	0.8027524000499398	2	49	1134371.065	87.5	0.8522743000648916	2	0
356.10966833424754	0.7986688998062164	2	0	0	0	0	0	0
356.90833723405376	0.7996884000021964	2	49	1134372.461	87.5	0.6476418001111597	1	0
357.70802563405596	0.7998990002088249	2	49	1134373.44	87.5	0.8268224000930786	2	0
358.5079246342648	0.8005813998170197	2	0	0	0	0	0	0
359.3085060340818	0.7978108001407236	2	0	0	0	0	0	0
360.1063168342225	0.7988533000461757	2	49	1134375.681	87.5	0.6696468000300229	1	0
360.9051701342687	0.7996862998697907	2	0	0	0	0	0	0
361.7048564341385	0.7976542999967933	2	49	1134377.337	100	0.7270808001048863	1	0
362.5025107341353	0.8030007	1	0	0	0	0	0	0
363.30551143409684	0.8015666999854147	2	49	1134378.974	100	0.7632330001797527	1	0
364.10707813408226	0.7989780001807958	2	0	0	0	0	0	0
364.90605613426305	0.7993078	2	0	0	0	0	0	0
365.70536393416114	0.800681	2	49	1134381.562	75	0.9507681000977755	2	0
366.5060449342709	0.7975917998701334	2	49	1134382.601	43.75	1.189432	2	0
367.30363673414104	0.8003404000774026	2	49	1134383.284	56.25	1.075310599990189	2	0
368.10397713421844	0.7991543000098318	2	49	1134383.768	100	0.7583087000530213	1	0
368.90313143422827	0.7995718999300152	2	49	1134384.917	56.25	1.1079080998897552	2	0
369.7027033341583	0.7975298999808729	2	49	1134385.771	50	1.1625218000262976	2	0
370.50023323413916	0.7978723000269383	2	49	1134386.535	50	1.1288884000387043	2	0
371.2981055341661	0.7990739999804646	2	49	1134387.332	50	1.1281340999994427	2	0
372.09717953414656	0.8014026000164449	2	0	0	0	0	0	0
372.8985821	0.7972726000007242	2	49	1134388.251	62.5	0.44670849991962314	1	0
373.69585473416373	0.7987732999026775	2	0	0	0	0	0	0
374.4946280340664	0.8013469001743942	2	49	1134389.937	75	0.5369422000367194	1	0
375.2959749342408	0.7997667999006808	2	49	1134390.475	43.75	0.2732239000033587	1	0
376.0957417341415	0.7979133001063019	2	49	1134392.063	62.5	1.061839299974963	2	0
376.8936550342478	0.8004089000169188	2	49	1134392.693	81.25	0.8938505998812616	2	0
377.6940639342647	0.7981360999401659	2	49	1134393.383	93.75	0.7834818998817354	2	0
378.49220003420487	0.7996094999834895	2	49	1134394.115	93.75	0.7171746999956667	1	0
379.29180953418836	0.7999573000706732	2	49	1134394.913	93.75	0.7154729999601841	1	0
380.09176683425903	0.7991731998044997	2	49	1134395.942	75	0.9443449999671429	2	0
380.89094003406353	0.7994555002078414	2	0	0	0	0	0	0
381.6903955342714	0.7984880998264998	2	49	1134397.113	68.75	0.5169072998687625	1	0
382.4888836340979	0.7998742000199854	2	49	1134398.349	75	0.9547657000366598	2	0
383.28875783411786	0.7984076000284404	1	0	0	0	0	0	0
384.0871654341463	0.7976285	2	49	1134399.974	68.75	0.9815074000507593	2	0
384.88479393417947	0.7975351000204682	2	49	1134400.856	62.5	1.0658931999932975	2	0
385.68232903419994	0.7978552998974919	1	0	0	0	0	0	0
386.48018433409743	0.8003686000593007	2	49	1134402.265	81.25	0.8794019	2	0
387.28055293415673	0.7983258999884129	1	0	0	0	0	0	0
388.07887883414514	0.7981777000240982	2	49	1134403.969	68.75	0.9848543000407517	2	0
388.87705653416924	0.7997538	2	49	1134404.504	100	0.7218853998929262	1	0
389.67681033420376	0.8006339999847114	2	0	0	0	0	0	0
390.4774443341885	0.7982820998877287	2	49	1134406.062	93.75	0.6793760000728071	1	0
391.2757264340762	0.7982740001752973	1	49	1134406.656	68.75	0.4749918000306934	1	0
392.0740004342515	0.7998574	2	49	1134407.519	75	0.5397681999020278	1	0
392.87385783414356	0.7993759999517351	2	0	0	0	0	0	0
393.6732338340953	0.7996664000675082	2	0	0	0	0	0	0
394.4729002341628	0.7994937000330538	2	0	0	0	0	0	0
395.27239393419586	0.8002571000251919	2	0	0	0	0	0	0
396.07265103422105	0.7984223999083042	1	0	0	0	0	0	0
396.87107343412936	0.7985658	2	49	1134412.396	87.5	0.6196626001037657	1	0
397.66963923419826	0.7996213000733405	2	0	0	0	0	0	0
398.4692605342716	0.7976534999907017	1	49	1134414.022	87.5	0.6467552999965847	1	0
399.2669140342623	0.7988047997932881	2	49	1134415.122	75	0.9492613999173045	2	0
400.0657188340556	0.7993515	2	49	1134415.863	81.25	0.8915768000297248	2	0
400.8650703	0.7992134999949485	2	49	1134416.868	56.25	1.0971715000923723	2	0
401.66428383416496	0.7985382999759167	2	49	1134417.506	75	0.9357113000005484	2	0
402.4628221341409	0.7976802999619395	1	0	0	0	0	0	0
403.2605024341028	0.8004016999620944	1	0	0	0	0	0	0
404.0609041340649	0.7989135000389069	2	49	1134419.699	100	0.7326740000862628	1	0
404.8598176341038	0.7999569999519736	1	0	0	0	0	0	0
405.6597746340558	0.7984504	2	49	1134421.669	56.25	1.1035546001512557	2	0
406.4582250341773	0.7992698999587446	2	49	1134422.149	93.75	0.7853528999257833	2	0
407.25749493413605	0.7995009999722242	2	49	1134423.151	68.75	0.9879926999565214	2	0
408.0569959341083	0.7996887001208961	2	49	1134423.887	75	0.9242796001490206	2	0
408.85668463422917	0.8001728998497128	1	0	0	0	0	0	0
409.6568575340789	0.7991579	2	49	1134425.657	56.25	1.0945449999999255	2	0
410.4560154341161	0.7994957000482827	2	49	1134426.242	81.25	0.8802251999732107	2	0
411.2555111341644	0.7989570999052376	1	49	1134426.922	100	0.7614478000905365	1	0
412.05446823406965	0.7988914	2	49	1134427.637	93.75	0.6768369001802057	1	0
412.8533596340567	0.7991246001329273	2	49	1134428.538	93.75	0.7789949	2	0
413.6524842341896	0.7982377998996526	2	49	1134429.485	75	0.9269230999052525	2	0
414.45072203408927	0.7990606999956071	2	49	1134430.526	43.75	1.1701181000098586	2	0
415.2497827340849	0.7991411001421511	2	49	1134431.236	56.25	1.080841900082305	2	0
416.0489238	0.7995120999403298	2	0	0	0	0	0	0
416.84843593416736	0.7973972999025136	2	49	1134432.256	68.75	0.5021669999696314	1	0
417.64583323406987	0.8007102999836206	2	0	0	0	0	0	0
418.4465435340535	0.7989688999950886	2	49	1134433.901	75	0.5491759001743048	1	0
419.2455124340486	0.7991295	2	49	1134435.02	87.5	0.8692822000011802	2	0
420.0446419341024	0.8004614000674337	2	49	1134435.861	81.25	0.9109746001195163	2	0
420.84510333416983	0.7986639000009745	1	0	0	0	0	0	0
421.6437672341708	0.7972971	2	49	1134436.929	56.25	0.3800315000116825	1	0
422.4410643342417	0.7993763999547809	2	0	0	0	0	0	0
423.24044073419645	0.7981171000283211	2	49	1134439.258	56.25	1.112102400045842	2	0
424.0385578342248	0.7982077000197023	1	0	0	0	0	0	0
424.8367655342445	0.8001500000245869	2	49	1134440.725	68.75	0.9830221999436617	2	0
425.63691553426906	0.7984618998598307	2	49	1134441.514	68.75	0.9719192998018116	2	0
426.4353774341289	0.7988273000810295	2	49	1134442.229	81.25	0.888374	2	0
427.2342047342099	0.7971743999514729	2	49	1134442.961	87.5	0.8215309	2	0
428.0313791341614	0.8004286999348551	2	49	1134443.683	100	0.7463829000480473	1	0
428.83180783409625	0.7989996001124382	2	49	1134444.531	93.75	0.7939916	2	0
429.6308074342087	0.7977235000580549	2	49	1134445.297	100	0.7606965999584645	1	0
430.42853093426675	0.7989497999660671	2	49	1134446.033	93.75	0.6989618998486549	1	0
431.2274807342328	0.7980041999835521	2	49	1134446.708	81.25	0.5755081998649985	1	0
432.02548493421637	0.7994836999569088	2	49	1134447.675	100	0.7435099999420345	1	0
432.8249686341733	0.7986290999688208	2	49	1134448.605	81.25	0.8741113001015037	2	0
433.6235977341421	0.8003555999603122	2	49	1134449.008	68.75	0.4793058999348432	1	0
434.4239533341024	0.7987383001018316	2	49	1134449.623	43.75	0.29316200013272464	1	0
435.22269163420424	0.7960880000609905	2	49	1134451.137	68.75	1.008430500049144	2	0
436.01877963426523	0.7997750998474658	2	49	1134451.948	62.5	1.023440099786967	2	0
436.8185547341127	0.7991667001042515	2	49	1134452.497	93.75	0.7733422999735922	2	0
437.61772143421695	0.7986166998744011	2	49	1134453.25	100	0.7263966999016702	1	0
438.41633813409135	0.8001011000014842	2	49	1134454.273	75	0.9508362000342458	2	0
439.21643923409283	0.7994089999701828	2	49	1134455.012	81.25	0.8905489000026137	2	0
440.0158482	0.7949289	1	0	0	0	0	0	0
440.8107771	0.7988316998817027	2	49	1134456.516	93.75	0.8001816999167204	2	0
441.6096088341437	0.7977168001234531	2	49	1134457.268	100	0.7526058999355882	1	0
442.4073256342672	0.7976538999937475	2	49	1134458.316	68.75	1.0032561998814344	2	0
443.20497953426093	0.8004038999788463	2	0	0	0	0	0	0
444.0053834342398	0.7992666999343783	2	49	1134460.17	37.5	1.258891699835658	2	0
444.80465013417415	0.7971955998800695	1	0	0	0	0	0	0
445.6018457340542	0.7997647000011057	2	49	1134461.437	75	0.9293518	2	0
446.4016104340553	0.8010501000098884	2	0	0	0	0	0	0
447.2026605340652	0.7995305000804365	2	49	1134462.842	100	0.7339344001375139	1	0
448.00219103414565	0.8003710000775754	2	49	1134463.392	68.75	0.4842089000158012	1	0
448.80256203422323	0.7998853998724371	2	49	1134464.085	56.25	0.37677389988675714	1	0
449.60244743409567	0.7980949	2	49	1134464.93	62.5	0.4220698999706656	1	0
450.4005423341878	0.7980565999168903	2	49	1134465.748	62.5	0.4418100998736918	1	0
451.19859893410467	0.7979502000380307	1	0	0	0	0	0	0
451.9965491341427	0.7982076001353562	2	0	0	0	0	0	0
452.79475673427805	0.7996497999411076	2	49	1134468.711	68.75	1.0107804997824132	2	0
453.59440653421916	0.7998162000440061	2	49	1134469.224	100	0.7242572	1	0
454.39422273426317	0.7988266998436302	2	49	1134469.885	81.25	0.5854740999639034	1	0
455.1930494341068	0.7975799001287669	2	49	1134470.648	75	0.5495709001552314	1	0
455.99062933423556	0.7988297999836504	2	49	1134471.587	93.75	0.6909764998126775	1	0
456.7894591342192	0.7984503998886794	2	0	0	0	0	0	0
457.5879095341079	0.7983693999703974	2	0	0	0	0	0	0
458.3862789340783	0.7978974001016468	2	49	1134473.73	62.5	0.43779340013861656	1	0
459.18417633417994	0.8002752000465989	2	49	1134474.975	81.25	0.8855933998711407	2	0
459.98445153422654	0.7981926000211388	2	49	1134475.797	81.25	0.9065509999636561	2	0
460.7826441342477	0.7961968998424709	2	49	1134476.661	68.75	0.9731570000294596	2	0
461.57884103409015	0.8007950000464916	2	0	0	0	0	0	0
462.37963603413664	0.7985062999650836	1	0	0	0	0	0	0
463.1781423341017	0.7989432001486421	2	49	1134479.081	68.75	0.9969860999844968	2	0
463.97708553425036	0.8007058999501169	2	0	0	0	0	0	0
464.7777914342005	0.7995474999770522	1	49	1134480.695	68.75	1.0115326000377536	2	0
465.57733893417753	0.7981950999237597	2	0	0	0	0	0	0
466.3755340341013	0.8004271001555026	2	0	0	0	0	0	0
467.1759611342568	0.7990835998207331	2	0	0	0	0	0	0
467.9750447340775	0.7976087001152337	2	49	1134484.107	37.5	1.2260190001688898	2	0
468.77265343419276	0.8000711	2	49	1134484.45	100	0.7714460999704897	1	0
469.57272453419864	0.7976349999662489	1	0	0	0	0	0	0
470.3703595341649	0.7992825999390334	2	49	1134486.124	87.5	0.8479879999067634	2	0
471.1696421341039	0.7976118000224233	2	49	1134487.394	31.25	1.3192243000958115	2	0
471.96725393412635	0.8002657000906765	2	49	1134487.885	68.75	1.012345900060609	2	0
472.7675196	0.7986542000435293	2	49	1134488.817	50	1.1440447999630123	2	0
473.56617383426055	0.7987167998217046	2	49	1134489.668	43.75	1.1959801998455077	2	0
474.36489063408226	0.7994715999811888	2	0	0	0	0	0	0
475.16436223406345	0.7981902	2	49	1134490.731	87.5	0.6609975001774728	1	0
475.9625524340663	0.7979831001721323	1	49	1134491.464	81.25	0.5956955	1	0
476.76053553423844	0.7989812998566777	2	49	1134492.441	93.75	0.7747036998625845	2	0
477.5595168340951	0.7987421001307666	2	49	1134493.407	75	0.9423760999925435	2	0
478.3582589342259	0.7991759998258203	2	49	1134494.17	81.25	0.9063585000112653	2	0
479.1574349340517	0.7999679001513869	2	0	0	0	0	0	0
479.9574028342031	0.7983939999248832	2	0	0	0	0	0	0
480.7557968	0.8005277	2	0	0	0	0	0	0
481.5563245341182	0.7989535	1	0	0	0	0	0	0
482.35527803422883	0.7981346999295056	2	0	0	0	0	0	0
483.15341273415834	0.7986149999778718	2	49	1134499.238	43.75	1.1789687001146376	2	0
483.9520277341362	0.7992887001018971	1	49	1134499.76	81.25	0.9024054000619799	2	0
484.7513164342381	0.8005506999325007	2	49	1134500.672	68.75	1.0153545	2	0
485.5518671341706	0.7994089999701828	2	0	0	0	0	0	0
486.3512761341408	0.8011755000334233	2	49	1134502.051	93.75	0.7941765999421477	2	0
487.1524516341742	0.7996817000675946	2	49	1134502.73	93.75	0.6716168	1	0
487.9521333342418	0.7984113998245448	2	49	1134503.702	87.5	0.8441411999519914	2	0
488.75054473406635	0.8000617001671344	2	49	1134504.51	87.5	0.8541602999903262	2	0
489.5506064342335	0.7980700000189245	2	49	1134505.204	100	0.7481610998511314	1	0
490.3486764342524	0.7994217998348176	2	49	1134506.025	93.75	0.7710025999695063	2	0
491.14809823408723	0.7988265999592841	2	49	1134506.879	87.5	0.8255692000966519	2	0
491.9469248340465	0.7997301002033055	2	49	1134507.897	62.5	1.044791400199756	2	0
492.7466549342498	0.7953367999289185	2	49	1134508.542	81.25	0.8900246999692172	2	0
493.54199173417874	0.7941487999632955	2	49	1134509.333	81.25	0.8856031999457628	2	0
494.33614053414203	0.7960709000471979	2	0	0	0	0	0	0
495.13221143418923	0.7961927000433207	2	49	1134511.246	43.75	1.2078416000586003	2	0
495.92840413423255	0.7986371000297368	2	49	1134511.89	62.5	1.056570899905637	2	0
496.7270412342623	0.7981527999509126	2	49	1134512.434	93.75	0.8016906999982893	2	0
497.5251940342132	0.7979055000469089	2	49	1134513.087	87.5	0.6563891000114381	1	0
498.3230995342601	0.7994040998164564	2	0	0	0	0	0	0
499.12250363407657	n/a	0	0	0	0	0	0	0