onset	duration	cue	constant1	timestamp	stimulus_coherence	response_time	response	constant2
0.0941574	0.7988307001069188	1	0	0	0	0	0	0
0.8929880999494344	0.7999360000248998	2	49	1219183.251	93.75	0.7839096998795867	2	0
1.6929240999743342	0.7976660998538136	2	49	1219183.924	87.5	0.6572135000023991	1	0
2.490590199828148	0.7956437000539154	2	49	1219184.964	81.25	0.8994636000134051	2	0
3.2862338998820633	0.7963123000226915	2	49	1219185.559	93.75	0.6990761000197381	1	0
4.082546199904755	0.7980347000993788	2	49	1219186.382	100	0.7256241999566555	1	0
4.880580900004134	0.8426592999603599	2	49	1219187.29	93.75	0.8357113997917622	2	0
5.7232401999644935	0.7975065999198705	2	49	1219188.078	93.75	0.7809884999878705	2	0
6.520746799884364	0.8006055001169443	2	49	1219188.875	93.75	0.7806762000545859	2	0
7.321352300001308	0.7970634	1	0	0	0	0	0	0
8.118415699806064	0.8003276002127677	2	49	1219190.361	87.5	0.6688854000531137	1	0
8.918743300018832	0.7981761998962611	2	49	1219191.179	93.75	0.6866989999543875	1	0
9.716919499915093	0.7979401999618858	2	49	1219191.923	87.5	0.6324700000695884	1	0
10.514859699876979	0.7984299000818282	2	49	1219192.92	87.5	0.8310203000437468	2	0
11.313289599958807	0.7980966998729855	2	49	1219193.801	81.25	0.9131747998762876	2	0
12.111386299831793	0.7984537000302225	2	49	1219194.721	62.5	1.0354245000053197	2	0
12.909839999862015	0.7973370000254363	2	49	1219195.184	93.75	0.6996510000899434	1	0
13.707176999887452	0.7985910999123007	2	49	1219195.987	93.75	0.7056462001055479	1	0
14.505768099799752	0.7960835001431406	2	49	1219196.734	87.5	0.6538287000730634	1	0
15.301851599942893	0.7965619000606239	2	49	1219197.458	81.25	0.5817482999991626	1	0
16.098413500003517	0.7988731998484582	2	49	1219198.421	100	0.7484636998269707	1	0
16.897286699851975	0.7975799001287669	2	49	1219199.236	100	0.7642540000379086	1	0
17.69486659998074	0.7989450998138636	2	49	1219200.166	81.25	0.8969518998637795	2	0
18.493811699794605	0.7984677001368254	2	49	1219200.813	100	0.7448316002264619	1	0
19.29227939993143	0.7965819998644292	2	49	1219201.677	93.75	0.8103710999712348	2	0
20.08886139979586	0.7989908000454307	2	49	1219202.395	100	0.7316022000741214	1	0
20.88785219984129	0.7991719001438469	2	49	1219203.234	93.75	0.7719616000540555	2	0
21.687024099985138	0.7988071998115629	2	49	1219203.972	93.75	0.7108534998260438	1	0
22.4858313	0.7982016000896692	2	49	1219204.777	93.75	0.7168655002024025	1	0
23.28403289988637	0.7980297000613064	2	49	1219205.66	93.75	0.8018301001284271	2	0
24.082062599947676	0.7983069999609143	2	49	1219206.379	93.75	0.7231695998925716	1	0
24.88036959990859	0.7984730999451131	2	49	1219207.315	87.5	0.8608303000219166	2	0
25.678842699853703	0.7963195000775158	2	49	1219207.899	87.5	0.6460051001049578	1	0
26.47516219993122	0.7987531998660415	2	49	1219208.8	100	0.7508405	1	0
27.27391539979726	0.7977581000886858	2	49	1219209.514	87.5	0.6659168000333011	1	0
28.071673499885947	0.799174	2	49	1219210.483	87.5	0.8370348999742419	2	0
28.87084749992937	0.7980875000357628	2	49	1219211.096	87.5	0.6509497000370175	1	0
29.66893499996513	0.8007189999334514	1	49	1219211.92	93.75	0.6769483	1	0
30.469653999898583	0.7994613000191748	2	49	1219212.842	93.75	0.7983373999595642	2	0
31.269115299917758	0.797051	2	49	1219213.504	87.5	0.6611583998892456	1	0
32.066166299860924	0.7989988001063466	2	49	1219214.429	93.75	0.7890101000666618	2	0
32.86516509996727	0.7968546999618411	1	0	0	0	0	0	0
33.66201979992911	0.7977748999837786	2	49	1219215.884	87.5	0.6479879000689834	1	0
34.45979469991289	0.7974288000259548	2	49	1219216.663	87.5	0.6287670000456274	1	0
35.257223499938846	0.7976633000653237	2	49	1219217.496	87.5	0.6646728999912739	1	0
36.05488680000417	0.7958098999224603	2	49	1219218.382	100	0.7534169	1	0
36.85069669992663	0.7976406998932362	2	49	1219219.344	81.25	0.9190110999625176	2	0
37.648337399819866	0.7968266000971198	2	49	1219220.096	87.5	0.8738820001017302	2	0
38.445163999916986	0.7981630000285804	1	0	0	0	0	0	0
39.243326999945566	0.7975662	2	49	1219221.413	81.25	0.5959155999589711	1	0
40.0408932	0.7973776001017541	1	49	1219222.43	93.75	0.8153313000220805	2	0
40.83827079995535	0.7988872998394072	2	49	1219223.265	87.5	0.8528626000043005	2	0
41.63715809979476	0.7987428000196815	2	49	1219223.992	93.75	0.7812059000134468	2	0
42.43590089981444	0.7997234	2	49	1219225.216	43.75	1.206415600143373	2	0
43.235624299850315	0.7975087000522763	2	49	1219225.698	81.25	0.8885796000249684	2	0
44.03313299990259	0.8048288	2	49	1219226.614	68.75	1.0065361000597477	2	0
44.83796179993078	0.7983871998731047	2	49	1219227.384	75	0.9714905999135226	2	0
45.636348999803886	0.8002470000647008	1	0	0	0	0	0	0
46.43659599986859	0.7994898001197726	2	49	1219228.809	93.75	0.7978676999919116	2	0
47.23608579998836	0.7976615999359637	2	49	1219229.578	100	0.7674709998536855	1	0
48.03374739992432	0.7983166000340134	2	49	1219230.545	75	0.9371076000388712	2	0
48.832063999958336	0.7972756999079138	2	49	1219231.405	68.75	0.9985026998911053	2	0
49.62933969986625	0.7981698999647051	2	49	1219232.154	75	0.9503669000696391	2	0
50.427509599830955	0.7976391999982297	2	49	1219232.904	81.25	0.9021356001030654	2	0
51.225148799829185	0.7981577001046389	2	49	1219233.71	81.25	0.9107049000449479	2	0
52.023306499933824	0.7984966998919845	2	49	1219234.448	87.5	0.8504814000334591	2	0
52.82180319982581	0.7974226	2	49	1219235.327	75	0.9309465000405908	2	0
53.61922579980455	0.8006700000260025	2	49	1219235.941	100	0.7475282000377774	1	0
54.419895799830556	0.7971408001612872	2	49	1219236.761	100	0.7668057000264525	1	0
55.21703659999184	0.7985487999394536	2	49	1219237.658	87.5	0.8669568998739123	2	0
56.0155854	0.7998452999163419	2	49	1219238.363	100	0.7730876000132412	1	0
56.81543069984764	0.7987502999603748	2	49	1219239.212	93.75	0.8223956001456827	2	0
57.61418099980801	0.7975600000936538	2	49	1219240.048	87.5	0.8601955000776798	2	0
58.41174099990167	0.8001105999574065	2	49	1219240.941	75	0.9552460999693722	2	0
59.211851599859074	0.7982107000425458	2	49	1219241.647	87.5	0.8608683000784367	2	0
60.01006229990162	0.7973474999889731	1	49	1219242.349	100	0.7649387000128627	1	0
60.80740979989059	0.7980546001344919	2	49	1219243.304	81.25	0.922576	2	0
61.605464400025085	0.7982331998646259	1	0	0	0	0	0	0
62.40369759988971	0.7971755000762641	2	49	1219244.882	81.25	0.9040626001078635	2	0
63.200873099965975	0.7975945000071079	2	49	1219245.595	93.75	0.8201661999337375	2	0
63.99846759997308	0.8001047999132425	2	49	1219246.403	87.5	0.8305758000351489	2	0
64.79857239988633	0.7970581001136452	1	0	0	0	0	0	0
65.59563049999997	0.7991723	2	49	1219247.884	93.75	0.7146546998992562	1	0
66.39480279991403	0.7970215999521315	2	49	1219248.613	87.5	0.6439036999363452	1	0
67.19182439986616	0.7962106999475509	2	49	1219249.464	93.75	0.6984016001224518	1	0
67.98803509981371	0.7976909000426531	2	49	1219250.385	87.5	0.8229919001460075	2	0
68.78572599985637	0.7972097001038492	2	49	1219251.184	87.5	0.8246928	2	0
69.58293569996022	0.7966588998679072	2	49	1219252.066	81.25	0.9093023999594152	2	0
70.37959459982812	0.7996009001508355	2	49	1219252.842	81.25	0.8885863001924008	2	0
71.17919549997896	0.7982422998175025	2	49	1219253.656	81.25	0.9031248998362571	2	0
71.97743779979646	0.7979839001782238	1	0	0	0	0	0	0
72.77542169997469	0.8001710998360068	2	49	1219254.885	75	0.5359076999593526	1	0
73.57559279981069	0.7970428999979049	2	49	1219255.71	75	0.5608288000803441	1	0
74.3726357	0.7992920000106096	2	49	1219256.796	87.5	0.8488408	2	0
75.17192769981921	0.8008891001809388	2	49	1219257.645	81.25	0.8995052000973374	2	0
75.97281680000015	0.7986062997952104	2	49	1219258.323	93.75	0.7757655	2	0
76.77142309979536	0.7971778002101928	2	49	1219259.322	68.75	0.9761127000674605	2	0
77.56860090000555	0.7975790000054985	2	49	1219260.076	75	0.9334654998965561	2	0
78.36617990001105	0.7987705	2	49	1219260.772	87.5	0.8319230999331921	2	0
79.1649504	0.7968802000395954	2	49	1219261.822	56.25	1.0825376999564469	2	0
79.9618306	0.7967560000251979	2	49	1219262.223	93.75	0.6870802000630647	1	0
80.7585866	0.7991982998792082	2	49	1219263.011	93.75	0.6788077000528574	1	0
81.5577849	0.8004257001448423	1	0	0	0	0	0	0
82.35821059998125	0.7982361998874694	2	49	1219264.467	75	0.5344730999786407	1	0
83.15644679986872	0.7969730000477284	2	49	1219265.441	93.75	0.7104769	1	0
83.95341979991645	0.7980990998912603	2	49	1219266.261	100	0.7332192999310791	1	0
84.7515189	0.7988473000004888	2	49	1219267.336	68.75	1.0106840000953525	2	0
85.5503662	0.7959575999993831	2	49	1219268.032	81.25	0.9071702000219375	2	0
86.34632379980758	0.7993321001995355	2	49	1219268.748	93.75	0.8278508000075817	2	0
87.14565590000711	0.7980618998408318	2	49	1219269.681	75	0.9615792999975383	2	0
87.94371779984795	0.7973579000681639	2	49	1219270.463	75	0.9455844000913203	2	0
88.74107569991611	0.7989103998988867	2	49	1219271.175	87.5	0.8597222	2	0
89.5399861	0.7988840001635253	2	49	1219272.005	81.25	0.8908790000714362	2	0
90.33887009997852	0.7986808000132442	2	49	1219272.806	81.25	0.8931050999090075	2	0
91.13755089999177	0.7982292	2	49	1219273.571	87.5	0.8597418998833746	2	0
91.93578009982593	0.7974584000185132	2	49	1219274.399	81.25	0.8891779000405222	2	0
92.73323849984445	0.7995325999800116	1	0	0	0	0	0	0
93.53277109982446	0.7976502000819892	2	49	1219275.703	81.25	0.5963512000162154	1	0
94.33042129990645	0.7983452000189573	1	49	1219276.645	100	0.7408467999193817	1	0
95.1287665	0.7997395999263972	2	49	1219277.577	87.5	0.8741092	2	0
95.9285061	0.7979272999800742	2	49	1219278.383	81.25	0.8808049999643117	2	0
96.72643339983188	0.7980289000552148	2	49	1219279.066	100	0.7654999999795109	1	0
97.52446229988709	0.7986248999368399	2	49	1219280.014	81.25	0.9156249000225216	2	0
98.32308719982393	0.7986217001453042	1	0	0	0	0	0	0
99.12170889996924	0.7983132998924702	2	49	1219281.511	93.75	0.8155812	2	0
99.9200222	0.7988571999594569	1	0	0	0	0	0	0
100.71887939982116	0.7988990000449121	2	49	1219282.967	93.75	0.6744893	1	0
101.51777839986607	0.798113	2	49	1219283.817	93.75	0.7249116	1	0
102.31589139997959	0.7982397000305355	2	49	1219284.938	62.5	1.0477768999990076	2	0
103.11413110001013	0.7977012	2	49	1219285.642	75	0.9540575998835266	2	0
103.9118323000148	0.7991363999899477	2	49	1219286.46	75	0.9745089998468757	2	0
104.71096870000474	0.7975561	2	49	1219287.307	68.75	1.0222201999276876	2	0
105.50852479995228	0.7983285998925567	2	49	1219288.045	75	0.9621186999138445	2	0
106.30685339984484	0.8000654999632388	2	49	1219288.698	93.75	0.8175417000893503	2	0
107.10691889980808	0.7980514001101255	2	49	1219289.406	93.75	0.7250315002165735	1	0
107.9049702999182	0.7985563999973238	2	49	1219290.296	93.75	0.8173930998891592	2	0
108.70352669991553	0.7981227999553084	2	49	1219291.074	93.75	0.7961434000171721	2	0
109.50164949987084	0.7980488000903279	2	49	1219291.913	87.5	0.8368436000309885	2	0
110.29969829996116	0.7975111999548972	2	49	1219292.657	93.75	0.7828150000423193	2	0
111.09720949991606	0.7954824001062661	2	49	1219293.658	68.75	0.9863633	2	0
111.89269190002233	0.7972281998954713	2	49	1219294.621	50	1.1540998998098075	2	0
112.6899200999178	0.7972365999594331	2	49	1219295.111	87.5	0.8467882999684662	2	0
113.48715669987723	0.7984798999968916	2	49	1219295.901	87.5	0.8398110000416636	2	0
114.28563659987412	0.7976863000076264	2	49	1219296.889	62.5	1.0290423999540508	2	0
115.08332289988175	0.7990824999287724	2	49	1219297.523	87.5	0.8655326	2	0
115.88240539981052	0.7984805000014603	2	49	1219298.286	87.5	0.8294037	2	0
116.68088589981198	0.7984558001626283	2	49	1219299.107	87.5	0.8520343001000583	2	0
117.47934169997461	0.7966583999805152	2	49	1219299.869	93.75	0.8153847998473793	2	0
118.27600009995513	0.7980966998729855	2	49	1219300.703	87.5	0.8531361999921501	2	0
119.07409679982811	0.7975014999974519	2	49	1219301.574	81.25	0.9258862000424415	2	0
119.87159829982556	0.7988991001620889	2	49	1219302.366	81.25	0.9204859000165015	2	0
120.67049739998765	0.7978939998429269	2	49	1219303.13	81.25	0.8853346998803318	2	0
121.46839139983058	0.7978034999687225	2	49	1219303.908	87.5	0.8654742001090199	2	0
122.2661948997993	0.7988744000904262	2	49	1219304.588	100	0.7472511001396924	1	0
123.06506929988973	0.7984323999844491	2	49	1219305.468	87.5	0.8288336000405252	2	0
123.86350169987418	0.7986958001274616	2	49	1219306.181	100	0.7435596000868827	1	0
124.66219750000164	0.7971462998539209	2	49	1219306.978	100	0.7417863998562098	1	0
125.45934379985556	0.7985855999868363	2	49	1219307.953	81.25	0.9196583000011742	2	0
126.2579293998424	0.8016146	2	49	1219308.669	87.5	0.8366509999614209	2	0
127.0595439998433	0.8003124999813735	2	49	1219309.494	87.5	0.8605375001206994	2	0
127.85985649982467	0.7995323000941426	2	49	1219310.177	100	0.7432230000849813	1	0
128.65938879991882	0.7973688000347465	2	49	1219311.057	87.5	0.8239084000233561	2	0
129.45675759995356	0.7993230000138283	2	49	1219311.721	93.75	0.6903985000681132	1	0
130.2560805999674	0.7979718998540193	2	49	1219312.502	87.5	0.6720418999902904	1	0
131.0540524998214	0.7980454000644386	2	49	1219313.433	93.75	0.8044679001905024	2	0
131.85209789988585	0.7974415000062436	2	49	1219314.359	75	0.9325403000693768	2	0
132.6495393998921	0.7992905999999493	2	49	1219315.157	75	0.9337017	2	0
133.44882999989204	0.7973034	1	0	0	0	0	0	0
134.24613339989446	0.7977684999350458	2	49	1219316.454	87.5	0.6340721000451595	1	0
135.0439018998295	0.7995955999940634	2	49	1219317.368	100	0.7505179001018405	1	0
135.84349749982357	0.7987810000777245	2	49	1219318.311	81.25	0.8939172001555562	2	0
136.6422784999013	0.7986783999949694	1	0	0	0	0	0	0
137.44095689989626	0.7984505000058562	2	49	1219319.745	100	0.7303782999515533	1	0
138.23940739990212	0.7981591999996454	2	49	1219320.695	81.25	0.8816637001000345	2	0
139.03756659990177	0.8002629	2	49	1219321.474	87.5	0.8620519	2	0
139.83782949997112	0.7980569000355899	2	49	1219322.365	75	0.9528685000259429	2	0
140.6358864000067	0.7957418998703361	2	49	1219323.043	87.5	0.8326332999859005	2	0
141.43162829987705	0.7976351000834256	2	49	1219323.806	93.75	0.7999998000450432	2	0
142.22926339996047	0.7984726999420673	2	49	1219324.716	81.25	0.9124622999224812	2	0
143.02773609990254	0.7978008000645787	2	49	1219325.504	81.25	0.9017413998953998	2	0
143.82553689996712	0.7967723000328988	2	49	1219326.273	81.25	0.8730502999387681	2	0
144.62230920000002	0.7975889998488128	2	49	1219327.098	81.25	0.9013588998932391	2	0
145.41989819984883	0.7981525000650436	1	0	0	0	0	0	0
146.21805069991387	0.7987911000382155	1	0	0	0	0	0	0
147.0168417999521	0.7983363999519497	2	49	1219329.419	87.5	0.8281487999483943	2	0
147.81517819990404	0.7965923000592738	2	49	1219330.149	100	0.7594938999973238	1	0
148.6117704999633	0.7997913998551667	2	49	1219330.998	93.75	0.8118501999415457	2	0
149.41156189981848	0.7974553999956697	2	49	1219332.002	68.75	1.0162598001770675	2	0
150.20901729981415	0.7990653000306338	2	49	1219332.743	75	0.9603017000481486	2	0
151.00808259984478	0.7981187000405043	1	0	0	0	0	0	0
151.8062012998853	0.7981219000648707	2	49	1219334.053	93.75	0.6726428000256419	1	0
152.60432319995016	0.7968659000471234	2	49	1219334.977	93.75	0.7984771998599172	2	0
153.40118909999728	0.7988969997968525	2	49	1219335.742	100	0.7667590000201017	1	0
154.20008609979413	0.7958837000187486	1	0	0	0	0	0	0
154.99596979981288	0.7982928000856191	2	49	1219337.06	68.75	0.48997570015490055	1	0
155.7942625998985	0.7983432000037283	2	49	1219338.241	87.5	0.8727736	2	0
156.59260579990223	0.7970045	2	49	1219339.011	87.5	0.8444329	2	0
157.38961029984057	0.7991764000616968	2	49	1219339.788	93.75	0.8245812000241131	2	0
158.18878669990227	0.7973321999888867	2	49	1219340.73	75	0.9675235	2	0
158.98611889989115	0.7990795	2	49	1219341.315	100	0.7551273	1	0
159.78519839979708	0.7987117001321167	2	49	1219342.359	68.75	1.0000689001753926	2	0
160.5839100999292	0.8000390999950469	1	0	0	0	0	0	0
161.38394919992425	0.7973019999917597	2	49	1219343.639	93.75	0.6811953999567777	1	0
162.1812512	0.7971713000442833	2	49	1219344.799	62.5	1.0436311000958085	2	0
162.9784224999603	0.7992664999328554	2	49	1219345.508	75	0.9559053	2	0
163.77768899989314	0.7985054000746459	1	0	0	0	0	0	0
164.5761943999678	0.7995352998841554	2	49	1219346.865	93.75	0.7142666999716312	1	0
165.37572969985195	0.7980224001221359	2	49	1219347.731	93.75	0.7815349	2	0
166.17375209997408	0.7993624999653548	2	49	1219348.638	81.25	0.8897084998898208	2	0
166.97311459993944	0.7958491998724639	2	49	1219349.365	93.75	0.8182258000597358	2	0
167.7689637998119	0.7985545999836177	2	49	1219350.203	87.5	0.8604290999937803	2	0
168.56751839979552	0.8000584000255913	2	49	1219351.267	56.25	1.1259143000934273	2	0
169.3675767998211	0.7971557001583278	1	0	0	0	0	0	0
170.16473249997944	0.7971852000337094	2	49	1219352.422	93.75	0.6836555998306721	1	0
170.96191770001315	0.7990047999192029	2	49	1219353.442	81.25	0.9065171999391168	2	0
171.76092249993235	0.7994866999797523	2	49	1219354.303	75	0.9676832	2	0
172.5604091999121	0.7982975000049919	2	49	1219355.273	50	1.1380857001058757	2	0
173.3587066999171	0.7982284	2	49	1219355.861	75	0.9280433000531048	2	0
174.1569351	0.7968204999342561	2	49	1219356.731	68.75	0.9997288999147713	2	0
174.95375559991226	0.7988585000857711	2	49	1219357.636	56.25	1.1082405000925064	2	0
175.75261409999803	0.797182	2	49	1219358.322	68.75	0.9952357998117805	2	0
176.54979610000737	0.798411	2	49	1219358.964	87.5	0.8399163999129087	2	0
177.34820709982887	0.7975582999642938	2	49	1219359.75	87.5	0.8275717000942677	2	0
178.14576539979316	0.7982035002205521	2	49	1219360.861	50	1.1409005001187325	2	0
178.94396890001372	0.7976118999067694	1	0	0	0	0	0	0
179.74158079992048	0.7979085999540985	2	49	1219362.18	87.5	0.8641047000419348	2	0
180.53948939987458	0.7989990001078695	2	49	1219363.316	43.75	1.2022345999721438	2	0
181.33848839998245	0.7979426998645067	2	0	0	0	0	0	0
182.13643109984696	0.7981512	2	49	1219364.332	81.25	0.6215352001599967	1	0
182.93458230001852	0.7981353998184204	2	49	1219365.341	87.5	0.8322265997994691	2	0
183.73271769983694	0.7975455999840051	2	49	1219366.127	93.75	0.8201896999962628	2	0
184.53026329982094	0.7994935000315309	2	49	1219366.962	87.5	0.8579071999993175	2	0
185.32975679985248	0.7980269000399858	2	49	1219368.028	56.25	1.1246299999766052	2	0
186.12778369989246	0.7993846000172198	2	49	1219368.596	81.25	0.8940092	2	0
186.92716829990968	0.7994049000553787	2	49	1219369.277	100	0.7762522	1	0
187.72657319996506	0.7989965	2	49	1219370.122	93.75	0.8214576998725533	2	0
188.52556969993748	0.7976438000332564	2	49	1219371.029	75	0.9294776	2	0
189.32321349997073	0.7975451999809593	1	0	0	0	0	0	0
190.1207586999517	0.7973527000285685	2	49	1219372.561	87.5	0.8663387999404222	2	0
190.91811139998026	0.7984996000304818	2	49	1219373.29	93.75	0.7982206998858601	2	0
191.71661100001074	0.7987703999970108	2	49	1219374.337	62.5	1.0466375998221338	2	0
192.51538140000775	0.7973911999724805	1	0	0	0	0	0	0
193.31277259998024	0.7998227998614311	2	49	1219375.71	93.75	0.8234572999645025	2	0
194.11259539984167	0.7964344001375139	2	49	1219376.514	87.5	0.8276848001405597	2	0
194.90902979997918	0.7969949999824166	2	49	1219377.313	87.5	0.8302297999616712	2	0
195.7060247999616	0.7974289	2	49	1219378.192	81.25	0.9117787999566644	2	0
196.5034536998719	0.7990524000488222	2	0	0	0	0	0	0
197.30250609992072	0.7994756998959929	2	49	1219379.634	100	0.7574287999887019	1	0
198.1019817998167	0.7990565001964569	2	49	1219380.425	100	0.7487232000567019	1	0
198.90103830001317	0.7971738998312503	2	49	1219381.508	62.5	1.0333559999708086	2	0
199.69821219984442	0.7962154000997543	2	49	1219382.121	87.5	0.8482771	2	0
200.49442759994417	0.7997762	2	49	1219382.946	81.25	0.8771408000029624	2	0
201.29420379991643	0.7993274	2	49	1219383.87	68.75	1.002208000048995	2	0
202.09353119996376	0.7970791000407189	2	49	1219384.536	87.5	0.8679621999617666	2	0
202.89061030000448	0.7983837998472154	2	49	1219385.663	43.75	1.1980429999530315	2	0
203.6889940998517	0.7955279999878258	2	49	1219386.2	75	0.9365688001271337	2	0
204.48452209983952	0.7981577999889851	2	49	1219386.948	81.25	0.8890260001644492	2	0
205.2826798998285	0.7979109999723732	1	0	0	0	0	0	0
206.08059089980088	0.7975964001379907	2	49	1219388.553	81.25	0.8982355000916868	2	0
206.87818729993887	0.7990246000699699	2	49	1219389.185	100	0.7324689999222755	1	0
207.67721190000884	0.7989808998536319	1	49	1219390.129	81.25	0.8775774999521673	2	0
208.47619279986247	0.7978920999448746	2	49	1219391.043	68.75	0.9924657000228763	2	0
209.27408489980735	0.7976647	2	49	1219391.706	87.5	0.8580546001903713	2	0
210.07174959988333	0.7989002000540495	2	49	1219392.718	62.5	1.072159199975431	2	0
210.87064979993738	0.7996829	2	49	1219393.392	75	0.9473381999414414	2	0
211.67033270001411	0.7973736999556422	2	49	1219394.364	56.25	1.1196798998862505	2	0
212.46770639996976	0.7987875000108033	2	49	1219394.983	75	0.9411096000112593	2	0
213.26649389998056	0.7967073998879641	2	49	1219395.524	93.75	0.6833454999141395	1	0
214.06320129986852	0.7970368000678718	2	49	1219396.354	93.75	0.7166773	1	0
214.8602380999364	0.799427	2	49	1219397.532	56.25	1.0978643000125885	2	0
215.6596650998108	0.7983381000813097	2	49	1219398.055	93.75	0.8216495	2	0
216.45800319989212	0.7987691999878734	2	49	1219399.148	56.25	1.1161454999819398	2	0
217.2567724	0.7981942	2	49	1219399.822	68.75	0.9911911999806762	2	0
218.0549665999133	0.7974684999790043	2	49	1219400.432	93.75	0.8031786000356078	2	0
218.85243509989232	0.8001564999576658	2	49	1219401.198	93.75	0.7717158000450581	2	0
219.65259159984998	0.7986071000341326	2	49	1219402.291	62.5	1.0644521999638528	2	0
220.45119869988412	0.7978908999357373	2	49	1219402.722	93.75	0.6970774000510573	1	0
221.24908959981985	0.7983113001100719	2	49	1219403.743	81.25	0.9193595	2	0
222.04740089992993	0.7981853999663144	2	49	1219404.796	43.75	1.1747343998868018	2	0
222.84558629989624	0.7992422999814153	2	49	1219405.195	100	0.7755646998994052	1	0
223.64482859987766	0.7992972999345511	2	49	1219406.26	62.5	1.0412105000577867	2	0
224.4441258998122	0.7965162000618875	2	49	1219406.774	100	0.7556172001641244	1	0
225.2406420998741	0.7979411999695003	1	49	1219407.554	100	0.7397419000044465	1	0
226.0385832998436	0.7995605999603868	2	49	1219408.575	75	0.9620694001205266	2	0
226.83814389980398	0.7969593000598252	2	49	1219409.361	75	0.9491381000261754	2	0
227.6351031998638	0.797186	1	0	0	0	0	0	0
228.4322891999036	0.7972649000585079	2	49	1219410.496	68.75	0.49002570006996393	1	0
229.22955409996212	0.7984412000514567	2	49	1219411.646	87.5	0.8427666998468339	2	0
230.02799530001357	0.7965737998019904	2	49	1219412.521	81.25	0.9194488	2	0
230.82456909981556	0.7979390001855791	2	49	1219413.568	50	1.1697831000201404	2	0
231.62250810000114	0.7965243998914957	2	49	1219413.926	100	0.7290120997931808	1	0
232.41903249989264	0.7978900000452995	2	49	1219415.146	50	1.1528442	2	0
233.21692249993794	0.7995456999633461	2	49	1219415.606	93.75	0.8154529000166804	2	0
234.01646819990128	0.7986870999448001	2	49	1219416.481	81.25	0.8900759	2	0
234.81515529984608	0.7979429000988603	2	49	1219417.119	100	0.7294384001288563	1	0
235.61309819994494	0.7987432000227273	2	49	1219418.084	81.25	0.897242	2	0
236.41184139996767	0.8023522000294179	1	0	0	0	0	0	0
237.2141935999971	0.7997647998854518	2	49	1219419.422	87.5	0.6334118999075145	1	0
238.01395839988254	0.7975663000252098	2	49	1219420.43	87.5	0.8417583999689668	2	0
238.81152469990775	0.7981308999005705	2	49	1219421.271	81.25	0.8856985000893474	2	0
239.60965559980832	0.7967380001209676	1	49	1219422.166	68.75	0.9825610001571476	2	0
240.4063935999293	0.7973746000789106	2	49	1219423.132	50	1.1515881000086665	2	0
241.2037682000082	0.7968974998220801	2	49	1219423.987	43.75	1.2091464998666197	2	0
242.00066569983028	0.7979229	2	49	1219424.643	62.5	1.0679848999716341	2	0
242.79858860000968	0.7979120998643339	2	49	1219425.36	68.75	0.9870050000026822	2	0
243.5965007	0.7989620000589639	2	49	1219426.247	56.25	1.0764743001200259	2	0
244.39546269993298	0.7988811999093741	2	49	1219426.934	75	0.9642604000400752	2	0
245.19434389984235	0.7999638000037521	2	49	1219427.896	50	1.1276796001475304	2	0
245.9943076998461	0.797895	2	0	0	0	0	0	0
246.79220269992948	0.7981577999889851	2	49	1219428.795	62.5	0.4288073000498116	1	0
247.59036049991846	0.7986590000800788	2	49	1219429.671	68.75	0.5067384000867605	1	0
248.38901949999854	0.7970774	2	49	1219430.91	75	0.9471429998520762	2	0
249.1860968999099	0.7983637999277562	2	49	1219431.649	81.25	0.8889011000283062	2	0
249.98446069983765	0.7990794000215828	1	0	0	0	0	0	0
250.78354009985924	0.7981088999658823	1	49	1219433.04	93.75	0.6820676000788808	1	0
251.58164899982512	0.7987685999833047	2	0	0	0	0	0	0
252.38041759980842	0.7974167000502348	2	49	1219434.723	100	0.7686265001539141	1	0
253.17783429985866	0.7964703000616282	2	49	1219435.613	87.5	0.8614237001165748	2	0
253.9743045999203	0.7962485000025481	2	49	1219436.606	62.5	1.057590999873355	2	0
254.77055309992284	0.7993805999867618	2	49	1219437.247	81.25	0.9027964998967946	2	0
255.5699336999096	0.7994383000768721	2	49	1219438.131	68.75	0.9872224999126047	2	0
256.36937199998647	0.7982695999089628	2	49	1219438.887	75	0.9439689	2	0
257.16764159989543	0.7949371000286192	2	49	1219439.798	62.5	1.0563678999897093	2	0
257.96257869992405	0.7977869999594986	2	49	1219440.366	87.5	0.8296527	2	0
258.76036569988355	0.7983536999672651	2	49	1219441.078	100	0.7440514999907464	1	0
259.5587193998508	0.7988573000766337	2	49	1219442.111	68.75	0.9786541999783367	2	0
260.35757669992745	0.7984676999039948	1	0	0	0	0	0	0
261.15604439983144	0.7976067001000047	2	49	1219443.576	87.5	0.8455555001273751	2	0
261.95365109993145	0.7988605999853462	2	49	1219444.422	81.25	0.8940342999994755	2	0
262.7525116999168	0.7998925999272615	2	49	1219445.14	93.75	0.8130204000044614	2	0
263.55240429984406	0.7981056000571698	2	49	1219445.995	87.5	0.8685282000806183	2	0
264.3505098999012	0.7992432999890298	2	49	1219446.882	75	0.9572421000339091	2	0
265.14975319989026	0.7964516000356525	2	49	1219447.588	87.5	0.8637786000035703	2	0
265.9462047999259	0.7962698999326676	2	49	1219448.613	56.25	1.0924442999530584	2	0
266.7424746998586	0.7960843001492321	1	0	0	0	0	0	0
267.5385590000078	0.7988924998790026	2	49	1219449.92	93.75	0.8073967997916043	2	0
268.3374514998868	0.7971993999090046	2	49	1219450.614	93.75	0.7021999999415129	1	0
269.1346508997958	0.7982826000079513	1	0	0	0	0	0	0
269.93293349980377	0.7967207001056522	2	49	1219452.325	93.75	0.8178121000528336	2	0
270.7296541999094	0.7994896	1	0	0	0	0	0	0
271.52914379979484	0.7967019001953304	1	49	1219453.936	87.5	0.8326596000697464	2	0
272.32584569999017	0.7969565999228507	2	0	0	0	0	0	0
273.1228023	0.7991730000358075	2	49	1219455.528	87.5	0.8311220000032336	2	0
273.9219752999488	0.7974290000274777	2	49	1219456.555	62.5	1.059150299988687	2	0
274.7194042999763	0.7986073999200016	2	49	1219457.232	75	0.9384043000172824	2	0
275.5180116998963	0.8003678000532091	2	49	1219457.97	81.25	0.8778868	2	0
276.3183794999495	0.7968142000027001	2	49	1219458.932	62.5	1.0395905000623316	2	0
277.1151936999522	0.7989928999450058	2	49	1219459.567	81.25	0.8777369000017643	2	0
277.9141865998972	0.7977070000488311	1	0	0	0	0	0	0
278.71189359994605	0.8010668000206351	1	0	0	0	0	0	0
279.5129603999667	0.7962603999767452	2	49	1219461.95	87.5	0.8628928998950869	2	0
280.30922079994343	0.7993199999909848	2	49	1219462.931	62.5	1.0481070999521762	2	0
281.1085407999344	0.7991923000663519	2	49	1219463.708	62.5	1.0252890000119805	2	0
281.90773310000077	0.7981734999921173	2	49	1219464.461	68.75	0.9794575998093933	2	0
282.7059065999929	0.7990538999438286	2	49	1219465.146	87.5	0.8660079999826849	2	0
283.5049604999367	0.7983021999243647	2	0	0	0	0	0	0
284.3032626998611	0.7970303001347929	2	49	1219466.63	100	0.7528200000524521	1	0
285.1002929999959	0.7985621998086572	2	49	1219467.624	75	0.9498574999161065	2	0
285.89885519980453	0.7983461001422256	2	49	1219468.577	56.25	1.1044744001701474	2	0
286.69720129994676	0.7968441999983042	2	49	1219469.282	68.75	1.0109995999373496	2	0
287.49404549994506	0.7984998000320047	2	49	1219470.21	50	1.1423827998805791	2	0
288.29254529997706	0.798106	2	49	1219470.843	68.75	0.9760155999101698	2	0
289.09065129980445	0.7977161000017077	2	49	1219471.532	87.5	0.8677899001631886	2	0
289.88836739980616	0.7971139000728726	2	49	1219472.352	81.25	0.8898914000019431	2	0
290.68548129987903	0.7979007000103593	2	49	1219473.161	81.25	0.9009704999625683	2	0
291.4833819998894	0.7984275000635535	2	49	1219473.897	87.5	0.8399696000851691	2	0
292.28180949995294	0.795853	2	49	1219474.949	56.25	1.0932831999380141	2	0
293.07766249985434	0.7977704999502748	1	0	0	0	0	0	0
293.8754329998046	0.7982462	2	49	1219476.436	68.75	0.9867955001536757	2	0
294.67367920000106	0.8002504999749362	2	49	1219477.008	100	0.7606468999292701	1	0
295.4739297	0.7966308000031859	2	49	1219477.88	87.5	0.8315687999129295	2	0
296.2705604999792	0.7979593998752534	2	49	1219478.723	81.25	0.8781456	2	0
297.06851989985444	0.7992149000056088	1	0	0	0	0	0	0
297.86773479986005	0.7959795999340713	2	49	1219480.452	68.75	1.0102411000989377	2	0
298.6637143997941	0.7994003	2	49	1219481.119	81.25	0.8808809001930058	2	0
299.46311469981447	0.7974618000444025	1	0	0	0	0	0	0
300.26057649985887	0.7990524000488222	2	49	1219482.737	81.25	0.9021781999617815	2	0
301.0596288999077	0.7987077001016587	1	0	0	0	0	0	0
301.85833660000935	0.7984155998565257	2	49	1219484.203	100	0.7701336999889463	1	0
302.6567521998659	0.7990773001220077	2	49	1219485.085	87.5	0.8542627999559045	2	0
303.4558294999879	0.7984761998523027	2	49	1219485.854	93.75	0.8239160999655724	2	0
304.2543056998402	0.7972079999744892	2	49	1219486.61	93.75	0.7813891000114381	2	0
305.0515136998147	0.7962672000285238	2	49	1219487.41	93.75	0.7842976001556963	2	0
305.8477808998432	0.7973359001334757	2	49	1219488.246	87.5	0.8243337001185864	2	0
306.6451167999767	0.8003117998596281	2	49	1219489.021	93.75	0.8020166	2	0
307.4454285998363	0.7983764000236988	2	49	1219490.083	62.5	1.0634107000660151	2	0
308.243805	0.7981787000317127	1	0	0	0	0	0	0
309.0419836998917	0.7967173000797629	2	49	1219491.356	100	0.7399869000073522	1	0
309.8387009999715	0.7981254998594522	2	49	1219492.247	87.5	0.8342277000192553	2	0
310.63682649983093	0.7984949	2	49	1219493.152	75	0.9410569001920521	2	0
311.43532139994204	0.7968796000350267	2	49	1219493.977	75	0.9675954999402165	2	0
312.23220099997707	0.7981310000177473	2	49	1219494.767	75	0.9604618998710066	2	0
313.0303319999948	0.8005809998139739	2	49	1219495.584	68.75	0.9797514998354018	2	0
313.8309129998088	0.7985596000216901	2	49	1219496.452	62.5	1.0474128001369536	2	0
314.6294725998305	0.7977199000306427	2	49	1219497.253	62.5	1.0498097001109272	2	0
315.4271924998611	0.8003217000514269	2	49	1219497.93	81.25	0.9290217000525445	2	0
316.22751419991255	0.7994756000116467	2	49	1219498.777	68.75	0.9756483000237495	2	0
317.0269897999242	0.7976076998747885	1	0	0	0	0	0	0
317.8245975	0.8009945000521839	2	49	1219500.361	75	0.9619008000008762	2	0
318.62559199985117	0.7961804000660777	2	49	1219501.002	93.75	0.8026438001543283	2	0
319.42177239991724	0.7984281000681221	2	49	1219501.748	100	0.7523157999385148	1	0
320.22020049998537	0.7976136000361294	2	49	1219502.752	75	0.9576920999679714	2	0
321.0178141000215	0.7965322998352349	2	49	1219503.661	56.25	1.0695487998891622	2	0
321.81434639985673	0.7969289000611752	2	49	1219504.358	75	0.9700534001458436	2	0
322.6112752999179	0.7996477000415325	2	49	1219505.365	43.75	1.179606500081718	2	0
323.41092299995944	0.7988673	2	49	1219506.201	43.75	1.2164990999735892	2	0
324.2097902998794	0.7966960000339895	1	0	0	0	0	0	0
325.0064862999134	0.7981781999114901	2	49	1219507.423	87.5	0.8425592998974025	2	0
325.80466449982487	0.7998583000153303	2	49	1219508.224	87.5	0.8457303000614047	2	0
326.6045227998402	0.7980808	2	49	1219509.039	87.5	0.8599762001540512	2	0
327.40260359994136	0.7996217000763863	2	49	1219510.152	43.75	1.1749585999641567	2	0
328.20222530001774	0.7972753997892141	1	0	0	0	0	0	0
328.99950069980696	0.7986023	2	49	1219511.311	100	0.7370715	1	0
329.79810299980454	0.7967482001986355	2	49	1219512.182	93.75	0.8096993	2	0
330.5948512000032	0.7975243998225778	2	49	1219513.056	81.25	0.8866306999698281	2	0
331.39237559982575	0.7994984001852572	2	49	1219513.934	75	0.9673119999933988	2	0
332.191874	0.7981689998414367	2	49	1219514.572	93.75	0.80609	2	0
332.99004299985245	0.7987669999711215	2	49	1219515.492	75	0.9280809999909252	2	0
333.78880999982357	0.7988654000218958	2	49	1219516.501	50	1.1380706001073122	2	0
334.58767539984547	0.7992923001293093	2	0	0	0	0	0	0
335.3869676999748	0.7986726998351514	2	49	1219517.632	87.5	0.6707401999738067	1	0
336.1856403998099	0.7995504999998957	2	49	1219518.541	93.75	0.7809822000563145	2	0
336.9851908998098	0.7981196001637727	2	49	1219519.774	43.75	1.2148094000294805	2	0
337.7833104999736	0.7993707999121398	2	49	1219520.554	43.75	1.196953099919483	2	0
338.58268129988573	0.7979802000336349	2	0	0	0	0	0	0
339.38066149991937	0.7979266999755055	2	49	1219521.722	100	0.7672774998936802	1	0
340.1785881998949	0.7983941	1	0	0	0	0	0	0
340.97698229993694	0.7977797999046743	2	49	1219523.46	81.25	0.9094193999189883	2	0
341.7747620998416	0.7973515000194311	1	0	0	0	0	0	0
342.57211359986104	0.7973221000283957	2	49	1219524.885	100	0.7384724000003189	1	0
343.36943569988944	0.7987917999271303	2	49	1219525.773	87.5	0.8295746000949293	2	0
344.16822749981657	0.7994469001423568	2	49	1219526.727	68.75	0.9844759001862258	2	0
344.9676743999589	0.7980601000599563	2	49	1219527.557	68.75	1.0152773999143392	2	0
345.7657345000189	0.7967323998454958	2	49	1219528.286	75	0.9466672998387367	2	0
346.5624668998644	0.7978714001365006	2	49	1219529.136	68.75	0.9991876999847591	2	0
347.3603383000009	0.7992487999144942	2	49	1219529.86	75	0.9256349999923259	2	0
348.15958709991537	0.7976456999313086	2	49	1219530.871	50	1.1375959001015872	2	0
348.9572327998467	0.7975896000862122	1	0	0	0	0	0	0
349.7548223999329	0.7979426998645067	2	49	1219532.195	87.5	0.8665704999584705	2	0
350.5527650997974	0.7975303002167493	2	49	1219532.991	87.5	0.8644863001536578	2	0
351.35029540001415	0.7978480998426676	2	49	1219533.838	81.25	0.91322	2	0
352.1481434998568	0.7977351	2	49	1219534.576	87.5	0.8533024000935256	2	0
352.9458786000032	0.7982855997979641	2	49	1219535.361	87.5	0.8413111998233944	2	0
353.74416419980116	0.7978529001120478	2	49	1219536.153	87.5	0.8342913000378758	2	0
354.5420170999132	0.7986087000463158	2	49	1219537.083	75	0.9672560999169946	2	0
355.3406257999595	0.7971890000626445	1	0	0	0	0	0	0
356.13781480002217	0.7996305997949094	2	49	1219538.624	81.25	0.9120637997984886	2	0
356.9374453998171	0.7996746001299471	2	49	1219539.263	100	0.7512096001300961	1	0
357.73712	0.7985115998890251	2	49	1219540.285	75	0.9734372000675648	2	0
358.53563159983605	0.7998011000454426	2	49	1219541.047	75	0.9369934999849647	2	0
359.3354326998815	0.7981281001120806	2	0	0	0	0	0	0
360.1335607999936	0.797708	2	49	1219542.152	62.5	0.4443319998681545	1	0
360.9312687998172	0.7959031001664698	1	49	1219543.004	68.75	0.4983686001505703	1	0
361.72717189998366	0.7978370999917388	2	49	1219544.126	93.75	0.8249152998905629	2	0
362.5250089999754	0.7982457999605685	2	49	1219545.065	75	0.9656120999716222	2	0
363.32325479993597	0.7970054000616074	2	49	1219545.716	93.75	0.8185254000127316	2	0
364.1202601999976	0.7981029998045415	2	49	1219546.802	56.25	1.1073379998560995	2	0
364.9183631998021	0.7980094000231475	2	49	1219547.341	87.5	0.8483692000154406	2	0
365.71637259982526	0.7973992000333965	2	49	1219547.968	93.75	0.6774751001503319	1	0
366.51377179985866	0.7969562001526356	2	49	1219549.012	75	0.9241599999368191	2	0
367.3107280000113	0.7976346998475492	2	49	1219549.699	93.75	0.8142041999381036	2	0
368.10836269985884	0.7983138000126928	2	49	1219550.545	87.5	0.8626149999909103	2	0
368.90667649987154	0.7970317001454532	2	49	1219551.381	81.25	0.9002272000070661	2	0
369.7037082	0.7975715999491513	2	49	1219552.406	50	1.1281643998809159	2	0
370.50127979996614	0.7979961999226362	2	49	1219553.022	75	0.9469063999131322	2	0
371.2992759998888	0.7994202000554651	2	49	1219553.716	87.5	0.8427349000703543	2	0
372.09869619994424	0.7973404000513256	2	49	1219554.488	93.75	0.8154108000453562	2	0
372.89603659999557	0.7997543998062611	2	49	1219555.244	100	0.7740036998875439	1	0
373.69579099980183	0.7980928001925349	2	49	1219556.293	62.5	1.0230494001880288	2	0
374.49388379999436	0.7987994998693466	2	49	1219557.045	68.75	0.9767091998364776	2	0
375.2926832998637	0.7982707000337541	2	49	1219557.74	87.5	0.8734232001006603	2	0
376.09095399989747	0.7987389999907464	2	49	1219558.588	75	0.9233230999670923	2	0
376.8896929998882	0.7981306000147015	1	0	0	0	0	0	0
377.6878235999029	0.7984501000028104	2	49	1219559.649	56.25	0.3872984000481665	1	0
378.4862736999057	0.7987166000530124	2	49	1219560.921	87.5	0.8605078000109643	2	0
379.28499029995874	0.7988493000157177	2	49	1219561.709	87.5	0.8504458998795599	2	0
380.08383959997445	0.7979594999924302	2	49	1219562.727	62.5	1.0696006000507623	2	0
380.8817990999669	0.7986194998957217	2	49	1219563.519	62.5	1.063401399878785	2	0
381.6804185998626	0.7979856000747532	2	49	1219564.307	62.5	1.0527685000561178	2	0
382.47840419993736	0.7974457000382245	2	49	1219564.978	75	0.9259792999364436	2	0
383.2758498999756	0.7964943000115454	2	49	1219565.97	56.25	1.1204377999529243	2	0
384.0723441999871	0.7970729	2	49	1219566.803	50	1.156603999901563	2	0
384.86941709998064	0.7972049999516457	2	49	1219567.473	62.5	1.029147599823773	2	0
385.6666220999323	0.7975298999808729	2	49	1219568.171	75	0.9306816000025719	2	0
386.46415199991316	0.7962921001017094	1	49	1219568.823	93.75	0.7851873	2	0
387.26044410001487	0.7971003998536617	2	49	1219569.787	75	0.9520411998964846	2	0
388.0575444998685	0.7968472000211477	2	49	1219570.549	81.25	0.9169990001246333	2	0
388.8543916998897	0.7986284999642521	2	49	1219571.537	56.25	1.1083442999515682	2	0
389.6530201998539	0.7982591	2	49	1219572.128	81.25	0.9005142000969499	2	0
390.45127929979935	0.7985907001420856	1	0	0	0	0	0	0
391.24986999994144	0.7967723000328988	1	49	1219573.457	87.5	0.6326750000007451	1	0
392.04664229997434	0.7968695999588817	2	49	1219574.759	50	1.1381850000470877	2	0
392.8435118999332	0.7994484000373632	2	49	1219575.464	62.5	1.0461651000659913	2	0
393.6429602999706	0.7982826998922974	2	49	1219576.167	75	0.9496512999758124	2	0
394.4412429998629	0.7974042	2	49	1219577.053	62.5	1.0379671000409871	2	0
395.23864719993435	0.7996481999289244	1	0	0	0	0	0	0
396.0382953998633	0.7971519001293927	2	49	1219578.578	75	0.9654989000409842	2	0
396.83544729999267	0.7976493998430669	2	49	1219579.244	87.5	0.8348335998598486	2	0
397.63309669983573	0.7983419999945909	2	49	1219580.04	87.5	0.8326988001354039	2	0
398.4314386998303	0.7965522999875247	2	49	1219580.898	81.25	0.8926288	2	0
399.22799099981785	0.7972742000129074	2	49	1219581.711	81.25	0.9092182000167668	2	0
400.02526519983076	0.7977120999712497	2	49	1219582.537	75	0.9376640999689698	2	0
400.8229773	0.7973707001656294	2	49	1219583.268	81.25	0.8707405000459403	2	0
401.62034799996763	0.8000695998780429	2	49	1219584.036	87.5	0.8416501998435706	2	0
402.4204175998457	0.7980494000948966	2	49	1219584.997	68.75	1.0027266000397503	2	0
403.2184669999406	0.7971258999314159	2	49	1219585.711	81.25	0.9185345999430865	2	0
404.0155929	0.7985314000397921	2	49	1219586.522	75	0.9319776999764144	2	0
404.8141242999118	0.7967199999839067	1	0	0	0	0	0	0
405.6108442998957	0.7989622999448329	2	49	1219587.906	93.75	0.7213435999583453	1	0
406.4098065998405	0.7976907000411302	2	49	1219588.759	93.75	0.7754908001516014	2	0
407.20749729988165	0.7996563001070172	2	49	1219589.749	75	0.9675151999108493	2	0
408.00715359998867	0.7987130000256002	2	49	1219590.436	87.5	0.8550880998373032	2	0
408.80586660001427	0.7973714999388903	2	49	1219591.314	75	0.9341178999748081	2	0
409.60323809995316	0.7998060998506844	2	49	1219592.175	68.75	0.9980953999329358	2	0
410.40304419980384	0.7978560000192374	2	49	1219592.989	68.75	1.0114132000599056	2	0
411.2009001998231	0.7976033000741154	2	49	1219593.752	68.75	0.9772693000268191	2	0
411.9985034998972	0.7984118999447674	2	49	1219594.507	75	0.9347405000589788	2	0
412.79691539984196	0.7974131000228226	2	49	1219595.24	81.25	0.8685425999574363	2	0
413.5943284998648	0.7981348000466824	2	49	1219596.169	68.75	1.0008770001586527	2	0
414.39246329991147	0.7981942	2	49	1219596.837	81.25	0.8709201000165194	2	0
415.1906574999448	0.7997852999251336	2	49	1219597.563	93.75	0.7984211000148207	2	0
415.9904427998699	0.7972363	1	49	1219598.487	81.25	0.9229154	2	0
416.7876790999435	0.7959769999142736	2	0	0	0	0	0	0
417.58365609985776	0.7972296001389623	2	49	1219599.728	75	0.5698049999773502	1	0
418.3808856999967	0.7961989999748766	2	49	1219600.9	75	0.9446882	2	0
419.1770846999716	0.7988125998526812	2	49	1219601.676	75	0.9244838	2	0
419.9758972998243	0.7961940001696348	1	0	0	0	0	0	0
420.7720912999939	0.7971762	2	49	1219603.077	100	0.7305173999629915	1	0
421.5692674999591	0.7982796998694539	2	49	1219604.028	81.25	0.8843737998977304	2	0
422.36754719982855	0.7994399000890553	2	49	1219604.918	68.75	0.9760549000930041	2	0
423.1669870999176	0.7984597999602556	2	49	1219605.667	75	0.9256923999637365	2	0
423.96544689987786	0.7970728001091629	2	49	1219606.651	56.25	1.1113080999348313	2	0
424.7625197	0.7981655998155475	2	49	1219607.385	62.5	1.0481827999465168	2	0
425.56068529980257	0.7974312000442296	2	0	0	0	0	0	0
426.3581164998468	0.8014032000210136	2	49	1219608.415	68.75	0.48283899994567037	1	0
427.1595196998678	0.7990381000563502	2	49	1219609.344	81.25	0.6109150000847876	1	0
427.95855779992417	0.7980583999305964	2	49	1219610.685	50	1.1526148999109864	2	0
428.75661619985476	0.7970769	2	49	1219611.248	81.25	0.9174548001028597	2	0
429.5536930998787	0.7972278001252562	2	49	1219612.037	81.25	0.9093055000994354	2	0
430.3509209	0.7993092997930944	2	49	1219613.074	50	1.1489990998525172	2	0
431.1502301997971	0.8006049999967217	2	49	1219613.615	81.25	0.8906174001749605	2	0
431.9508351997938	0.7967186002060771	2	49	1219614.63	56.25	1.1050939001142979	2	0
432.7475537999999	0.7982809999957681	2	49	1219615.242	81.25	0.9201038000173867	2	0
433.54583479999565	0.7979450998827815	2	49	1219616.007	81.25	0.886995	2	0
434.3437798998784	0.7995621000882238	2	49	1219617.085	50	1.1675502001307905	2	0
435.14334199996665	0.7980608998332173	2	49	1219617.678	75	0.9608166	2	0
435.94140289979987	0.7986444002017379	2	49	1219618.688	43.75	1.1726275000255555	2	0
436.7400473000016	0.7972808999475092	2	49	1219619.305	68.75	0.9913078998215497	2	0
437.5373281999491	0.7997514999005944	2	49	1219620.028	81.25	0.9167030998505652	2	0
438.3370796998497	0.7975999000482261	2	49	1219620.796	81.25	0.8850841000676155	2	0
439.13467959989794	0.7982985998969525	2	49	1219621.655	75	0.9465580999385566	2	0
439.9329781997949	0.7968149001244456	2	49	1219622.432	75	0.9250565	2	0
440.72979309991933	0.7974108	2	0	0	0	0	0	0
441.5272038998082	0.7977038000244647	2	49	1219623.531	62.5	0.43013440002687275	1	0
442.3249076998327	0.7959347001742572	2	49	1219624.933	62.5	1.0343177001923323	2	0
443.12084240000695	0.7962687998078763	2	49	1219625.684	68.75	0.9894546	2	0
443.9171111998148	0.7977121002040803	2	49	1219626.521	62.5	1.0303025001194328	2	0
444.7148233000189	0.7968394998461008	1	0	0	0	0	0	0
445.5116628	0.7967813999857754	2	49	1219628.093	68.75	1.0077690000180155	2	0
446.3084441998508	0.7979198000393808	1	0	0	0	0	0	0
447.10636399989016	0.7977167000062764	2	49	1219629.585	81.25	0.9042817000299692	2	0
447.90408069989644	0.7977068999316543	2	49	1219630.402	81.25	0.9242962000425905	2	0
448.7017875998281	0.7997340001165867	2	49	1219631.155	81.25	0.8790341999847442	2	0
449.5015215999447	0.8006464000791311	2	49	1219632.039	75	0.9632858000695705	2	0
450.3021680000238	0.7988084999378771	1	0	0	0	0	0	0
451.1009764999617	0.7967957998625934	2	49	1219633.444	100	0.7686117999255657	1	0
451.8977722998243	0.7966024000197649	2	49	1219634.386	81.25	0.9139529000967741	2	0
452.69437469984405	0.7991305000614375	2	49	1219635.183	81.25	0.9142867000773549	2	0
453.4935051999055	0.7989211000967771	2	49	1219636.175	56.25	1.1074079999234527	2	0
454.29242630000226	0.7976398998871446	2	0	0	0	0	0	0
455.0900661998894	0.7984700999222696	2	49	1219637.54	87.5	0.8754390999674797	2	0
455.8885362998117	0.7977055001538247	2	0	0	0	0	0	0
456.6862417999655	0.7993561	2	49	1219638.793	75	0.5324601999018341	1	0
457.4855978998821	0.7979179001413286	1	0	0	0	0	0	0
458.28351580002345	0.7983902997802943	2	49	1219640.879	68.75	1.0213433997705579	2	0
459.08190609980375	0.7975608000997454	2	49	1219641.543	81.25	0.8869703	2	0
459.8794668999035	0.7977750999853015	2	49	1219642.273	93.75	0.8193751000799239	2	0
460.6772419998888	0.7991361001040787	2	49	1219643.263	68.75	1.011546100024134	2	0
461.47637809999287	0.7961796999443322	2	49	1219644.239	43.75	1.188647300004959	2	0
462.2725577999372	0.7964403999503702	1	0	0	0	0	0	0
463.0689981998876	0.7968661999329925	1	49	1219645.398	100	0.7552948999218643	1	0
463.86586439982057	0.7992187000345439	2	0	0	0	0	0	0
464.6650830998551	0.8000694999936968	2	49	1219646.976	100	0.7369163001421839	1	0
465.4651525998488	0.7990793001372367	2	49	1219647.763	93.75	0.7238598000258207	1	0
466.26423189998604	0.7979177	2	49	1219648.573	100	0.7346667998936027	1	0
467.0621496	0.7966060000471771	2	49	1219649.445	93.75	0.8092131000012159	2	0
467.8587555999402	0.7984861000441015	2	49	1219650.303	87.5	0.8706242	2	0
468.6572416999843	0.7966111998539418	2	49	1219651.173	75	0.9418052998371422	2	0
469.45385289983824	0.7975540000479668	1	0	0	0	0	0	0
470.2514068998862	0.7978367	2	49	1219652.686	87.5	0.8608927000313997	2	0
471.0492435998749	0.7987580001354218	2	49	1219653.605	68.75	0.9818529000040144	2	0
471.8480016000103	0.7986859998200089	2	49	1219654.538	56.25	1.116122999927029	2	0
472.64668759983033	0.7966887999791652	2	0	0	0	0	0	0
473.4433763998095	0.7974107000045478	2	49	1219655.451	62.5	0.4338559000752866	1	0
474.24078709981404	0.7981244002003223	2	49	1219656.795	68.75	0.9804118000902236	2	0
475.03891150001436	0.7973882998339832	2	49	1219657.584	75	0.9713159999810159	2	0
475.83629979984835	0.7984529000241309	2	49	1219658.361	75	0.9510894000995904	2	0
476.6347526998725	0.7971888000611216	2	49	1219659.174	75	0.9656680000480264	2	0
477.4319414999336	0.7973368999082595	2	49	1219659.866	87.5	0.8596775999758393	2	0
478.22927839984186	n/a	0	0	0	0	0	0	0