onset	duration	cue	constant1	timestamp	stimulus_coherence	response_time	response	constant2
28.413885208681677	0.7525143000002572	2	49	6507.846325	62.5	0.9985842000005505	2	0
29.166399508681934	0.751868	2	49	6508.319284	100	0.7190295000000333	1	0
29.91826750868222	0.7524979999998322	2	49	6508.825584	68.75	0.4734613000000536	1	0
30.670765508682052	0.7518405000000712	2	49	6509.654391	81.25	0.5497703000000911	1	0
31.422606008682124	0.7519692999994732	2	49	6510.521704	93.75	0.6652426	1	0
32.17457531	0.7518342000003031	2	49	6511.396322	87.5	0.7878913000004104	2	0
32.92640951	0.7521458000001076	2	49	6512.107408	93.75	0.7471428999997443	2	0
33.67855530868201	0.7519446999995125	2	49	6512.857569	93.75	0.7451583000001847	2	0
34.43050000868152	0.7523888000005172	1	49	6513.668785	87.5	0.8044295000008788	2	0
35.18288880868204	0.7522957000001043	2	49	6514.521735	75	0.9049906000000192	2	0
35.93518450868214	0.7522189000001163	2	49	6515.199415	81.25	0.8303754999997182	2	0
36.68740340868226	0.7515182999995886	2	0	0	0	0	0	0
37.438921708681846	0.7517502999999124	2	49	6516.286526	62.5	0.41374939999968774	1	0
38.19067200868176	0.7520074	1	49	6516.952188	50	0.32766040000024077	1	0
38.942679408682125	0.7515247000001182	2	49	6518.222847	81.25	0.8463122000002841	2	0
39.69420410868224	0.7515726	2	49	6518.966693	81.25	0.8386341999994329	2	0
40.44577670868239	0.7514871999992465	2	49	6519.608772	100	0.7291404999996303	1	0
41.197263908681634	0.7518396000004941	2	49	6520.368853	93.75	0.7377341000001252	2	0
41.94910350868213	0.7521173999994062	1	49	6521.126806	93.75	0.7438470999995843	2	0
42.701220908681535	0.7521800000004077	2	49	6521.820744	93.75	0.6856675000008181	1	0
43.45340090868194	0.7523295999999391	2	49	6522.615726	100	0.7284701999997196	1	0
44.20573050868188	0.7516334000001734	2	49	6523.424792	87.5	0.7852060000004712	2	0
44.957363908682055	0.7516330999997081	2	49	6524.220942	81.25	0.8297228999999788	2	0
45.70899700868176	0.7522066	2	49	6525.009822	81.25	0.8669694999998683	2	0
46.46120361	0.7521372000001065	2	49	6525.755973	81.25	0.8609139999998661	2	0
47.213340808682005	0.7515659999999116	2	49	6526.497134	81.25	0.849938	2	0
47.96490680868192	0.7527295999998387	2	49	6527.317022	75	0.9182603	2	0
48.717636408681756	0.752372	1	0	0	0	0	0	0
49.47000840868168	0.7523438	2	49	6528.434041	75	0.5301779000001261	1	0
50.222352208681514	0.7512895000008939	2	49	6529.282945	87.5	0.6267380000008416	1	0
50.97364170868241	0.7520089999998163	2	49	6530.165153	93.75	0.7576565999997911	2	0
51.725650708682224	0.7517945	2	49	6530.992171	81.25	0.8326646999994409	2	0
52.477445208682184	0.7537827999994988	2	49	6531.682012	93.75	0.7707120999994004	2	0
53.23122800868168	0.7519439000006969	2	49	6532.475226	87.5	0.8101426000002903	2	0
53.98317190868238	0.7519827	2	49	6533.265303	81.25	0.8482760999995662	2	0
54.73515460868202	0.7527883000002475	2	49	6534.160054	62.5	0.9910446000003503	2	0
55.48794290868227	0.7513191999996707	2	49	6534.688197	93.75	0.7663992999996481	2	0
56.23926210868194	0.7523775999998179	2	49	6535.39036	100	0.7172429000002012	1	0
56.99163970868176	0.7523993000004339	1	49	6536.306275	75	0.8807802000001175	2	0
57.74403900868219	0.7516703999999663	2	0	0	0	0	0	0
58.49570940868216	0.7526348999999755	2	49	6537.736581	87.5	0.8070165999997698	2	0
59.248344308682135	0.7518390999994153	2	49	6538.398394	100	0.7161949000001187	1	0
60.00018340868155	0.7524704	2	49	6539.18726	93.75	0.7532215999999607	2	0
60.752653808682226	0.7522539000001416	2	49	6539.932236	93.75	0.7457269999995333	2	0
61.50490770868237	0.7526464999991731	2	49	6540.66428	100	0.7255172999994102	1	0
62.25755420868154	0.7525674000007712	2	49	6541.566633	75	0.8752237000007881	2	0
63.01012160868231	0.7518019999997705	2	49	6542.350376	75	0.9063994999996794	2	0
63.76192360868208	0.7537580999996862	1	0	0	0	0	0	0
64.51568170868177	0.7522255000003497	2	49	6543.540667	81.25	0.5911303	1	0
65.26790720868212	0.7523058999995555	2	49	6544.413379	100	0.7116162000002078	1	0
66.02021310868167	0.7527064000005339	2	49	6545.2426	87.5	0.7885319000006348	2	0
66.77291950868221	0.7520808999997826	2	49	6546.083446	75	0.8766716000000088	2	0
67.52500040868199	0.7532889000003706	2	49	6546.882575	75	0.9237192999999024	2	0
68.27828930868236	0.7524801	2	49	6547.47977	93.75	0.7676254999996672	2	0
69.03076940868232	0.7528753999995388	2	49	6548.323101	81.25	0.8584764999995969	2	0
69.78364480868186	0.7523197000000437	2	49	6548.978003	93.75	0.7605026999999609	2	0
70.53596451	0.7520747999997184	2	0	0	0	0	0	0
71.28803930868162	0.7523128000002544	2	49	6550.417648	100	0.6957537000007505	1	0
72.04035210868187	0.7521677000004274	1	0	0	0	0	0	0
72.79251981	0.7523805000000721	2	49	6551.839784	87.5	0.6134090999994442	1	0
73.54490030868237	0.7527844999995068	2	49	6552.632655	93.75	0.6538991999996142	1	0
74.29768480868188	0.7528453000004447	2	49	6553.437748	100	0.7062083999999231	1	0
75.05053010868232	0.7521489000000656	2	49	6554.405908	68.75	0.9215225	2	0
75.80267900868239	0.7524882999996407	2	49	6555.068878	81.25	0.8323441999991701	2	0
76.55516730868203	0.7522985	2	49	6555.68479	100	0.6957672999997158	1	0
77.30746580868163	0.7526707000006354	2	49	6556.463842	100	0.7225215000007665	1	0
78.06013650868226	0.7518172999998569	2	49	6557.316268	81.25	0.8222761999995782	2	0
78.81195380868212	0.7519695000000866	1	49	6558.081795	81.25	0.8359862	2	0
79.56392331	0.7528714999998556	1	0	0	0	0	0	0
80.31679480868206	0.7534334000001763	2	49	6559.48504	93.75	0.7343903999999384	2	0
81.07022820868224	0.7527395999995861	2	49	6560.536968	56.25	1.0328847000000678	2	0
81.82296780868182	0.7533573000000615	2	49	6561.106045	81.25	0.8492223000002923	2	0
82.57632510868189	0.7537024	2	49	6561.780172	93.75	0.7699920000004568	2	0
83.33002750868218	0.7526785000000018	2	49	6562.43905	93.75	0.6751673999997365	1	0
84.08270600868218	0.7533282999993389	1	49	6563.194014	93.75	0.6774531999999454	1	0
84.83603430868152	0.7519713000001502	2	49	6563.991022	100	0.7211321000004318	1	0
85.58800560868167	0.7529985999999553	2	49	6564.769081	93.75	0.7472204000005149	2	0
86.34100420868162	0.7528533000004245	2	49	6565.58577	87.5	0.8109103000006144	2	0
87.09385750868205	0.7528308999999354	2	49	6566.360206	81.25	0.8324934000002031	2	0
87.84668840868198	0.753447	2	49	6567.093097	87.5	0.8125534999999218	2	0
88.60013540868204	0.7527903000000151	2	49	6567.84183	87.5	0.8078395000002274	2	0
89.35292570868205	0.7529740999998467	2	49	6568.56627	93.75	0.7794893999998749	2	0
90.10589981	0.7520599999998012	2	49	6569.343414	87.5	0.8036591999998564	2	0
90.85795981	0.7530636000001323	2	49	6570.104177	87.5	0.8123623000001317	2	0
91.61102340868183	0.7528466000003391	2	49	6570.826199	87.5	0.7813203	2	0
92.36387000868217	0.7531751999995322	2	49	6571.768095	62.5	0.9703700999998546	2	0
93.11704521	0.7532563000004302	2	49	6572.351357	87.5	0.8004566999998133	2	0
93.87030150868213	0.7525187000001097	1	49	6573.256141	68.75	0.9519847000001391	2	0
94.62282020868224	0.7529034999997748	2	49	6574.132465	50	1.0757893999998487	2	0
95.37572370868202	0.7516857999999047	2	49	6574.844263	56.25	1.0346841000000495	2	0
96.12740950868192	0.7521938999998383	2	49	6575.574495	62.5	1.0132298999997147	2	0
96.87960340868176	0.7522337999998854	2	49	6576.484499	37.5	1.1710405000003448	2	0
97.63183720868165	0.7528124000000389	1	0	0	0	0	0	0
98.38464960868168	0.7535058000003119	2	49	6577.482609	93.75	0.6641044000007241	1	0
99.13815541	0.7530278000003818	1	49	6578.198508	87.5	0.6264970000001995	1	0
99.89118320868238	0.7533696999998938	2	49	6579.079529	93.75	0.7544909	2	0
100.64455290868227	0.7529556999998022	1	49	6579.894745	87.5	0.8163369999992938	2	0
101.39750860868207	0.7524579000000813	2	49	6580.94056	50	1.109196499999598	2	0
102.14996650868216	0.7525175999999192	2	49	6581.540928	68.75	0.9571067999995648	2	0
102.90248410868207	0.7533857999997053	2	49	6582.119713	87.5	0.7833740999994916	2	0
103.65586990868178	0.7534703999999692	2	49	6582.739574	93.75	0.6498492999999144	1	0
104.40934030868175	0.7522214999999051	2	49	6583.5725	100	0.7293047000002844	1	0
105.16156180868165	0.7529963000006319	2	49	6584.353846	93.75	0.7584294000007503	2	0
105.91455810868229	0.7530720999993719	1	49	6585.101866	93.75	0.7534527999996499	2	0
106.66763020868166	0.7522546000000148	2	49	6585.838611	93.75	0.7371253000001161	2	0
107.41988480868167	0.7524929999999586	2	0	0	0	0	0	0
108.17237780868163	0.7528620000002775	2	49	6587.371381	93.75	0.7651484000007258	2	0
108.92523980868191	0.7522055999997974	2	49	6588.153807	87.5	0.7947123000003558	2	0
109.6774454086817	0.7521382000004451	1	49	6589.101704	62.5	0.9904039	2	0
110.42958360868215	0.7528069	1	49	6589.964871	50	1.1014321000002383	2	0
111.18239050868215	0.7521580000002359	2	49	6590.615894	62.5	0.9996479000001273	2	0
111.93454850868238	0.7523568999995405	2	49	6591.177873	87.5	0.8094694	2	0
112.68690540868192	0.7521249000001262	2	49	6592.038945	68.75	0.9181845000002795	2	0
113.43903030868205	0.7521725999995397	2	49	6592.634284	93.75	0.7613985999996657	2	0
114.19120290868159	0.7524578000002293	1	49	6593.485395	81.25	0.8603367000005164	2	0
114.94366070868182	0.7528059000005669	2	49	6594.166875	87.5	0.7893595000005007	2	0
115.69646660868239	0.7528120999995735	2	49	6594.937833	87.5	0.8075112999995326	2	0
116.44927870868196	0.7525858999997581	2	49	6595.811014	68.75	0.9278802999997424	2	0
117.20186460868172	0.7524051999998846	2	49	6596.389138	93.75	0.7534181999999419	2	0
117.9542698086816	0.7522079000000303	2	49	6597.370025	62.5	0.9819002	2	0
118.70647770868163	0.7521789000002173	1	49	6598.143342	62.5	1.0030087000004642	2	0
119.45865660868185	0.7518546000001152	2	49	6598.704054	87.5	0.8115422000000763	2	0
120.21051120868196	0.7531734	2	49	6599.575205	68.75	0.9308385000003909	2	0
120.96368460868234	0.7519356999991942	2	49	6600.147383	93.75	0.7498433999999179	2	0
121.71562030868154	0.7525204000003214	1	49	6600.784116	87.5	0.6346408000008523	1	0
122.46814070868186	0.7522435999999288	2	49	6601.557352	93.75	0.6553562999997666	1	0
123.22038430868179	0.7529887999999119	2	49	6602.296127	93.75	0.6418875999997908	1	0
123.9733731086817	0.7531790000002729	2	49	6603.128205	100	0.7209771000007095	1	0
124.72655210868197	0.7529053999996904	2	49	6603.886199	100	0.7257914	1	0
125.47945750868166	0.7532175000005736	2	49	6604.590293	93.75	0.6769806000002063	1	0
126.23267500868224	0.7529115999996066	2	49	6605.422258	93.75	0.7557274999999208	2	0
126.98558660868184	0.7532007999998314	2	49	6606.173547	93.75	0.7541053000004467	2	0
127.73878740868167	0.7539389000003212	2	49	6607.121426	68.75	0.9487839000003078	2	0
128.4927263	0.7532172000001083	2	49	6607.725567	87.5	0.7989858999999342	2	0
129.2459435086821	0.7531879999996818	2	49	6608.468412	87.5	0.7886130999995657	2	0
129.99913150868178	0.7524873000002117	2	49	6609.137436	100	0.7044498000004751	1	0
130.7516188	0.7533713000002535	2	49	6609.953279	93.75	0.7678051000002597	2	0
131.50499010868225	0.7533518000000186	2	49	6610.711407	93.75	0.7725620999999592	2	0
132.25834190868227	0.7524993999995786	2	49	6611.433464	93.75	0.7412666999998692	2	0
133.01084130868185	0.7527729000003092	2	49	6612.188422	93.75	0.7437255	2	0
133.76361420868216	0.7528041999994457	2	49	6613.036515	81.25	0.8390451999994184	2	0
134.5164184086816	0.7528207000004841	2	49	6613.884635	68.75	0.9343612000002395	2	0
135.2692391086821	0.7527891999998246	2	49	6614.490567	87.5	0.7874725	2	0
136.0220283086819	0.7520575999997163	2	49	6615.326555	81.25	0.8706718000003093	2	0
136.77408590868163	0.7540459000001647	2	49	6616.008799	87.5	0.8008581000003687	2	0
137.5281318086818	0.7527215999998589	2	49	6616.740877	87.5	0.7788899	2	0
138.28085340868165	0.7532921000001807	2	49	6617.498787	87.5	0.7840786000006119	2	0
139.03414550868183	0.7523980000005395	2	49	6618.272044	87.5	0.8040433000005578	2	0
139.78654350868237	0.7534380999995847	2	49	6619.010833	87.5	0.7904341	2	0
140.53998160868196	0.7537109	2	49	6619.6619	100	0.6880627999998978	1	0
141.2936925086824	0.7535943999992014	1	0	0	0	0	0	0
142.0472869086816	0.7523703000006208	2	49	6621.088859	87.5	0.6077171000006274	1	0
142.79965720868222	0.7521004000000175	2	49	6622.041291	87.5	0.8077789999997549	2	0
143.55175760868224	0.7534904999993159	2	49	6622.786887	87.5	0.8012739999994665	2	0
144.30524810868155	0.7528830999999627	2	49	6623.666955	68.75	0.927852	2	0
145.05813120868152	0.7526487000004636	2	49	6624.225942	93.75	0.7339558000003308	2	0
145.81077990868198	0.7529078999996273	2	49	6625.019982	87.5	0.7753466000003755	2	0
146.5636878086816	0.7526426000003994	2	49	6625.819315	81.25	0.8217723000007027	2	0
147.3163304	0.7527640999996947	2	49	6626.550146	87.5	0.7999601999999868	2	0
148.0690945086817	0.7524904000001698	2	49	6627.345079	81.25	0.8421290000005683	2	0
148.82158490868187	0.7533983000002991	2	49	6628.206158	68.75	0.9507177000004958	2	0
149.57498320868217	0.7529423999994833	1	0	0	0	0	0	0
150.32792560868165	0.7528101000007155	2	49	6629.04508	43.75	0.2832994000000326	1	0
151.08073570868237	0.7529125999999451	2	49	6629.923179	62.5	0.40858809999917867	1	0
151.8336483086823	0.7529365000000325	2	49	6631.127098	81.25	0.8595940999994127	2	0
152.58658480868235	0.7520572	2	49	6631.806084	87.5	0.7856441999992967	2	0
153.33864200868175	0.7524917999999161	2	49	6632.656989	75	0.8844914000001154	2	0
154.09113380868166	0.7529613000006066	1	49	6633.453138	68.75	0.9281492999998591	2	0
154.84409510868227	0.7526026999994428	2	49	6634.096247	87.5	0.8182964999996329	2	0
155.5966978086817	0.7533751999999367	2	49	6634.859355	81.25	0.8288024000003134	2	0
156.35007300868165	0.7527608000000328	2	49	6635.648249	81.25	0.8643203999999969	2	0
157.10283380868168	0.7527817000000141	2	49	6636.370285	81.25	0.8335959	2	0
157.8556155086817	0.7533893999998327	1	0	0	0	0	0	0
158.60900490868153	0.7534578	2	49	6637.653598	87.5	0.6107377000007546	1	0
159.36246270868196	0.7531122999998843	2	49	6638.493264	100	0.6969458000003215	1	0
160.11557500868184	0.7527705000002243	2	49	6639.35768	87.5	0.8082495999997263	2	0
160.86834550868207	0.7534864999997808	2	49	6640.021374	100	0.7191732999999658	1	0
161.62183200868185	0.7535091999998258	2	49	6640.77966	100	0.7239729000002626	1	0
162.37534120868168	0.7522760000001654	2	49	6641.732478	68.75	0.9232820000006541	2	0
163.12761720868184	0.7528032000000167	2	49	6642.332285	93.75	0.7708125	2	0
163.88042040868186	0.7526858999999604	2	49	6643.088548	93.75	0.7742723999999725	2	0
164.63310630868182	0.7530624000000898	2	49	6643.985603	75	0.9186415000003763	2	0
165.3861687086819	0.7529716999997618	2	49	6644.58338	93.75	0.7633562000000893	2	0
166.13914040868167	0.7518456000007063	2	49	6645.278519	100	0.7055232000002434	1	0
166.89098600868238	0.7519487999998091	2	49	6646.145584	87.5	0.8207427999996071	2	0
167.64293480868218	0.7527807999995275	2	49	6646.828622	93.75	0.7518323	2	0
168.3957156086817	0.7526160000006712	2	49	6647.597629	93.75	0.7680586	2	0
169.14833160868238	0.7529912999998487	2	0	0	0	0	0	0
169.90132290868223	0.7530685	2	49	6649.035667	100	0.7004894000001514	1	0
170.6543914086824	0.7530264	2	49	6649.660903	81.25	0.5726568000000043	1	0
171.4074178086821	0.7538305999996737	2	49	6650.646834	87.5	0.8055605999998079	2	0
172.1612484086818	0.7529436000004353	2	49	6651.321643	100	0.7265391000000818	1	0
172.91419200868222	0.7532264000001305	2	49	6652.140763	87.5	0.7927159000000756	2	0
173.66741840868235	0.7531648999993195	2	49	6652.910226	87.5	0.8089528000000428	2	0
174.42058330868167	0.7530159000007188	2	49	6653.681806	87.5	0.8273675000000367	2	0
175.1735992086824	0.7518622999996296	2	49	6654.525859	75	0.9184048999995866	2	0
175.92546150868202	0.7525494000001345	2	49	6655.186931	81.25	0.8276138999999603	2	0
176.67801090868215	0.7525746999999683	2	49	6655.931789	87.5	0.8199226999995517	2	0
177.43058560868212	0.7529820999998265	2	49	6656.582969	100	0.7185277999997197	1	0
178.18356770868195	0.753075	2	49	6657.394181	93.75	0.7767578000002686	2	0
178.93664270868157	0.7525642000000516	2	49	6658.293826	68.75	0.9233280000007653	2	0
179.68920690868163	0.7529204	2	49	6658.997934	75	0.8748718000006193	2	0
180.44212730868185	0.7530563000000257	2	49	6659.614987	93.75	0.7390050000003612	2	0
181.19518360868187	0.7529258	2	49	6660.721115	50	1.0920765999999276	2	0
181.94810940868228	0.7520599999998012	2	49	6661.34948	62.5	0.9675159	2	0
182.7001694086821	0.7525786999995034	2	0	0	0	0	0	0
183.4527481086816	0.7528906000006828	2	49	6662.509758	87.5	0.6231550000002244	1	0
184.20563870868227	0.7529822999995304	2	49	6663.282326	93.75	0.6428321999992477	1	0
184.9586210086818	0.7532972999997583	2	49	6664.028195	87.5	0.6357183999998597	1	0
185.71191830868156	0.7531665000005887	2	49	6665.087998	68.75	0.9422250000006898	2	0
186.46508480868215	0.7529895	2	49	6665.71618	87.5	0.8172398999995494	2	0
187.21807430868193	0.7532663000001776	1	49	6666.45322	87.5	0.8012906000003568	2	0
187.9713406086821	0.7529365999998845	2	49	6667.193279	87.5	0.7880833999997776	2	0
188.7242772	0.7533935000001293	1	49	6667.74334	81.25	0.5852077999998073	1	0
189.47767070868213	0.7524954000000434	2	49	6668.565407	93.75	0.6538812	1	0
190.23016610868217	0.7523426999996445	2	49	6669.367535	100	0.7035134999996444	1	0
190.9825088086818	0.7523474999998143	1	0	0	0	0	0	0
191.73485630868163	0.7526757000005091	2	49	6670.772406	87.5	0.6036950000006982	1	0
192.48753200868214	0.7520349999995233	1	49	6671.639518	100	0.7181308999997782	1	0
193.23956700868166	0.7532825000007506	1	49	6672.403475	93.75	0.7300531000000774	2	0
193.9928495086824	0.7517768999996406	2	49	6673.291315	81.25	0.8646104999997988	2	0
194.74462640868205	0.7521825000003446	2	49	6674.104302	68.75	0.9258202999999412	2	0
195.4968089086824	0.7526874999994106	2	49	6674.734459	87.5	0.8037949999998091	2	0
196.2494964086818	0.7531882000002952	1	49	6675.377386	100	0.6940345000002708	1	0
197.0026846086821	0.7535373000000618	2	49	6676.232492	87.5	0.7959525999995094	2	0
197.75622190868216	0.7528683999998975	2	49	6676.991559	87.5	0.8014824000001681	2	0
198.50909030868206	0.7526523999995334	1	49	6677.732566	87.5	0.7896205	2	0
199.2617427086816	0.7527514000003066	2	49	6678.636664	68.75	0.941066	2	0
200.0144941086819	0.7532056999998531	2	49	6679.418537	62.5	0.9701875000000655	2	0
200.76769980868175	0.7526438000004418	2	49	6679.995535	87.5	0.7939796	2	0
201.5203436086822	0.7519478999993225	2	49	6680.785754	81.25	0.8315549	2	0
202.27229150868152	0.7522175000003699	2	49	6681.476653	93.75	0.7705068000004758	2	0
203.0245090086819	0.7531676999997217	2	49	6682.354745	75	0.8963807000000088	2	0
203.7776767086816	0.7608842	1	0	0	0	0	0	0
204.53856090868157	0.7536984000007578	2	49	6683.621544	93.75	0.6491281000007803	1	0
205.29225930868233	0.7525912999999491	2	49	6684.414873	100	0.6887587999999596	1	0
206.04485060868228	0.7524737999992794	2	49	6685.176592	100	0.6978863999993337	1	0
206.79732440868156	0.7525631000007706	2	49	6685.983924	93.75	0.7527446000003692	2	0
207.54988750868233	0.7525423999995837	1	49	6686.716749	93.75	0.7330063999997947	2	0
208.30242990868192	0.7529475999999704	2	49	6687.595068	81.25	0.8587828999998237	2	0
209.0553775086819	0.7528189000004204	2	49	6688.356822	81.25	0.8675892999999633	2	0
209.8081964086823	0.7518249999993714	1	49	6689.055901	87.5	0.8138496999999916	2	0
210.56002140868168	0.7519624000005933	2	49	6690.001517	62.5	1.0076408000004449	2	0
211.31198380868227	0.7526993000001312	2	49	6690.657809	75	0.9119698999993489	2	0
212.0646831086824	0.7535944999999629	1	49	6691.46192	68.75	0.9633821999996144	2	0
212.81827760868237	0.7519902999993064	2	49	6692.210922	68.75	0.9587895999993634	2	0
213.57026790868167	0.7524280000006911	2	49	6692.890011	75	0.8858875000005355	2	0
214.32269590868236	0.7529389999999694	2	49	6693.527922	93.75	0.7713711999995212	2	0
215.07563490868233	0.7567228999996587	1	49	6694.200506	100	0.6910155999994458	1	0
215.8323578	0.7539022999999361	2	49	6694.906009	93.75	0.6397962999999436	1	0
216.58626010868193	0.7527405000000726	1	49	6695.645476	87.5	0.6253606999998738	1	0
217.3390006	0.7528769000000466	2	49	6696.464968	100	0.6921124000000418	1	0
218.09187750868205	0.7536135000000286	2	49	6697.203222	93.75	0.6774889999996958	1	0
218.84549100868207	0.7530405	2	49	6698.042792	93.75	0.7634459999999308	2	0
219.59853150868184	0.7527496000002429	2	49	6698.868088	81.25	0.8357016	2	0
220.3512811086821	0.7517469	1	49	6699.511223	100	0.7260870999998588	1	0
221.10302800868158	0.7526094000004377	2	49	6700.281395	93.75	0.7445122000008269	2	0
221.85563740868201	0.7520869999998467	2	49	6701.006413	100	0.7169209	1	0
222.60772440868186	0.7533524999998917	2	49	6701.799391	93.75	0.7578111000002536	2	0
223.36107690868175	0.7529863	2	49	6702.748315	68.75	0.9533827000004749	2	0
224.11406320868173	0.7526728000002549	2	49	6703.401573	81.25	0.8536551000006511	2	0
224.86673600868198	0.7521800000004077	2	49	6704.179484	75	0.8788930999999138	2	0
225.6189160086824	0.7532607999992251	2	49	6704.846314	87.5	0.7935431999994762	2	0
226.37217680868162	0.7529684000000998	2	49	6705.599461	87.5	0.7934288000005836	2	0
227.12514520868172	0.7517177999998239	2	49	6706.413721	81.25	0.8547201999999743	2	0
227.87686300868154	0.7521349000007831	1	0	0	0	0	0	0
228.62899790868232	0.7518345999997109	1	49	6707.943215	75	0.8803617999992639	2	0
229.38083250868203	0.7523197000000437	2	49	6708.869372	56.25	1.054684200000338	2	0
230.13315220868208	0.7528130999999121	2	49	6709.414504	81.25	0.8474970999996003	2	0
230.8859653	0.7521759000001111	2	49	6710.124604	87.5	0.8047832000002018	2	0
231.6381412086821	0.7525862000002235	2	49	6710.87059	87.5	0.7985933999998451	2	0
232.39072740868232	0.7537048999993203	2	49	6711.69455	81.25	0.8699677999993582	2	0
233.14443230868164	0.7523288	2	49	6712.362561	87.5	0.7842734000005294	2	0
233.89676110868186	0.7520911999999953	1	49	6713.107509	93.75	0.7768928000004962	2	0
234.64885230868185	0.7527299	2	49	6713.88842	87.5	0.8057122999998683	2	0
235.40158220868216	0.7527275000002192	2	49	6714.620698	87.5	0.7852606	2	0
236.15430970868238	0.7532842999999048	2	49	6715.406762	87.5	0.8185967999997956	2	0
236.90759400868228	0.7531460000000152	2	49	6716.298632	68.75	0.9571826999999757	2	0
237.6607400086823	0.7525870999998006	2	49	6716.861654	93.75	0.7670588000000862	2	0
238.4133271086821	0.7523624999994354	2	49	6717.66468	87.5	0.8174978999995801	2	0
239.16568960868153	0.7529702000001635	2	49	6718.572899	62.5	0.9733546000006754	2	0
239.9186598086817	0.7522558999999092	1	49	6719.195139	81.25	0.8426244000002043	2	0
240.6709157086816	0.7521323999999368	2	49	6719.943763	81.25	0.8389923000004273	2	0
241.42304810868154	0.7542508	2	49	6720.698581	81.25	0.8416778000000704	2	0
242.17729890868213	0.7520720000002257	2	49	6721.662742	56.25	1.051587799999652	2	0
242.92937090868236	0.7520449999992707	2	49	6722.238846	75	0.8756203999992067	2	0
243.68141590868163	0.7522555000005013	1	0	0	0	0	0	0
244.43367140868213	0.7515955999997459	2	49	6723.192999	50	0.32547280000017054	1	0
245.18526700868188	0.7520519999998214	2	49	6724.585031	62.5	0.9659093000000212	2	0
245.9373190086817	0.7533229999999094	2	49	6725.226281	81.25	0.8551066999998511	2	0
246.6906420086816	0.7532553000000917	2	49	6725.856121	100	0.7316236000006029	1	0
247.4438973086817	0.7524743000003582	2	49	6726.58827	100	0.7105178000001615	1	0
248.19637160868206	0.7520383000000948	2	49	6727.357023	100	0.7267965000000913	1	0
248.94840990868215	0.7523792000001777	1	0	0	0	0	0	0
249.70078910868233	0.7518479999998817	2	49	6728.914265	87.5	0.7796206999992137	2	0
250.4526371086822	0.7524293	2	49	6729.604057	100	0.7175646999994569	1	0
251.2050664086819	0.7517708000004859	2	49	6730.311019	93.75	0.6720973999999842	1	0
251.95683720868237	0.7513705999999729	2	49	6731.141211	93.75	0.7505185999998503	2	0
252.70820780868235	0.7527127999992445	2	49	6732.12905	62.5	0.9869871	2	0
253.4609206086816	0.7514213	2	49	6732.812386	68.75	0.9176106000004438	2	0
254.2123419	0.7518824999997378	1	0	0	0	0	0	0
254.96422440868173	0.7534344000005149	2	49	6734.073277	93.75	0.6751973000000362	1	0
255.71765880868224	0.7516826000000947	2	49	6735.023215	75	0.8717013999994379	2	0
256.46934140868234	0.7524901999995564	2	49	6736.056133	43.75	1.1529364999996687	2	0
257.2218316086819	0.7522435999999288	2	49	6736.551403	75	0.8957158000002892	2	0
257.9740752086818	0.7537317000005714	2	49	6737.25751	81.25	0.8495799	2	0
258.7278069086824	0.7529162999999244	2	49	6738.032458	81.25	0.8707961999998588	2	0
259.4807232086823	0.7528956	2	49	6738.725978	87.5	0.8113997999998901	2	0
260.23361880868197	0.7516726000003473	2	49	6739.419266	93.75	0.7517919000001712	2	0
260.9852914086823	0.7525662999996712	2	49	6740.296316	75	0.8771692000000257	2	0
261.7378577	0.7528024000002915	2	49	6741.043461	81.25	0.8717482000001837	2	0
262.4906601086823	0.7523430999999619	2	49	6741.719523	87.5	0.7950075999997352	2	0
263.24300320868224	0.7526764999993247	2	49	6742.360546	100	0.6836875999997574	1	0
263.99567970868156	0.7529511000002458	2	49	6743.134752	100	0.7052168000000165	1	0
264.7486308086818	0.7531164000001809	2	49	6743.942532	93.75	0.7600457999997161	2	0
265.5017472	0.7528818000000683	2	49	6744.704504	93.75	0.7689012	2	0
266.25462900868206	0.7529182	2	49	6745.615027	68.75	0.9265425000003233	2	0
267.0075472086819	0.7519487999998091	2	49	6746.258542	87.5	0.8171400999999605	2	0
267.7594960086817	0.7526676000006773	2	49	6747.056615	81.25	0.8632637999999133	2	0
268.5121636086824	0.7524703999997655	2	0	0	0	0	0	0
269.26463400868215	0.7523930999996082	2	49	6748.247837	81.25	0.5493483000000197	1	0
270.01702710868176	0.7525243999998565	2	49	6748.766879	50	0.3159964000005857	1	0
270.7695515086816	0.7523520000004282	2	49	6749.608648	62.5	0.40524180000011256	1	0
271.52190350868204	0.7522542999995494	2	49	6750.343278	56.25	0.38751890000003186	1	0
272.2741578086816	0.7524018000003707	2	49	6751.40566	100	0.6976468000002569	1	0
273.02655960868196	0.7533181999997396	2	49	6752.161828	100	0.7014136999996481	1	0
273.7798778086817	0.7530831000003673	2	49	6753.017721	87.5	0.8039883000001282	2	0
274.53296090868207	0.7518178000000262	2	49	6753.944582	62.5	0.9777663	2	0
275.2847787086821	0.7530675999996674	2	49	6754.517708	87.5	0.7990744999997332	2	0
276.03784630868176	0.7525660000001153	2	49	6755.289823	87.5	0.8181214000005639	2	0
276.7904123086819	0.7529907999996794	2	49	6756.087995	81.25	0.8637275999999474	2	0
277.54340310868156	0.7527376	2	49	6756.816073	81.25	0.8388147	2	0
278.2961407086823	0.7530395999992834	2	49	6757.815867	50	1.0858715999993365	2	0
279.04918030868157	0.7544875	2	49	6758.473042	62.5	0.9900067000007766	2	0
279.8036678086819	0.7521894000001339	1	0	0	0	0	0	0
280.5558572	0.7527362999999241	1	0	0	0	0	0	0
281.30859350868195	0.7518483000003471	2	49	6760.689197	68.75	0.9467480000002979	2	0
282.0604418086823	0.7528083999995943	2	49	6761.267929	93.75	0.7736322999999174	2	0
282.8132502086819	0.7521766999998363	2	49	6761.965094	100	0.7179891000005227	1	0
283.56542690868173	0.7525279000001319	2	49	6762.878016	75	0.8787343000003602	2	0
284.31795480868186	0.7523257000002559	2	49	6763.627137	75	0.8753269999997428	2	0
285.0702805086821	0.7521113000002515	2	49	6764.409502	75	0.9053659999999581	2	0
285.82239180868237	0.7528734999996232	2	49	6765.092208	81.25	0.8359608999999182	2	0
286.5752653	0.7532342000004064	2	49	6765.878346	81.25	0.8692253999997774	2	0
287.3284995086824	0.7530518999992637	2	49	6766.529316	93.75	0.7669613999996727	2	0
288.08155140868166	0.7536016000003656	2	49	6767.289252	93.75	0.7738457000004928	2	0
288.835153	0.7531384000003527	2	49	6768.17499	75	0.9059821000000738	2	0
289.5882914086824	0.7527803999992102	2	0	0	0	0	0	0
290.3410718086816	0.7530559000006178	2	49	6769.462303	100	0.6873756000004505	1	0
291.0941277086822	0.752625	2	49	6770.339684	87.5	0.8117008999997779	2	0
291.8467527086823	0.7523105999998734	2	49	6771.079406	87.5	0.7987978999999541	2	0
292.59906330868216	0.7521580000002359	2	49	6771.973413	68.75	0.940495	2	0
293.3512213086824	0.7522595	2	49	6772.631416	81.25	0.8463394999998854	2	0
294.1034808086815	0.7523973000006663	2	0	0	0	0	0	0
294.8558781086822	0.7523416	2	0	0	0	0	0	0
295.60821970868164	0.7528030000003127	2	49	6774.763474	100	0.7213992000006328	1	0
296.36102270868196	0.7526279000003342	2	49	6775.455469	93.75	0.6605914000001576	1	0
297.1136506086823	0.7517871999998533	2	49	6776.194483	93.75	0.6469772999998895	1	0
297.86543780868215	0.7527595999999903	2	49	6777.133452	81.25	0.8341589999999997	2	0
298.61819740868214	0.7526965	2	49	6778.033389	62.5	0.9813360999996803	2	0
299.37089390868186	0.7521776000003229	2	49	6778.807784	62.5	1.0030352000003404	2	0
300.1230715086822	0.7527282999999443	1	0	0	0	0	0	0
300.87579980868213	0.7520607999995264	2	49	6780.160916	81.25	0.8512613000002602	2	0
301.62786060868166	0.7528607000003831	2	49	6780.931825	81.25	0.8701094000007288	2	0
302.38072130868204	0.7526876000001721	2	49	6781.806986	62.5	0.9924094999996669	2	0
303.1334089086822	0.7528069999998479	2	49	6782.485816	75	0.9185520000000906	2	0
303.88621590868206	0.7521421000001283	2	49	6783.239014	68.75	0.9189426000002641	2	0
304.6383580086822	0.7522626999998465	2	49	6783.8198	93.75	0.7475870999996914	2	0
305.39062070868204	0.7524648999997225	2	49	6784.552772	100	0.7282956999997623	1	0
306.14308560868176	0.7530034999999771	2	49	6785.384178	87.5	0.8072376999998596	2	0
306.89608910868174	0.7538490000006277	2	49	6786.291797	68.75	0.9618527000002359	2	0
307.64993810868236	0.7520842999992965	2	49	6787.023006	68.75	0.9392129999996541	2	0
308.40202240868166	0.7531213000002026	2	49	6787.695374	81.25	0.8594969000005221	2	0
309.15514370868186	0.7524111000002449	1	0	0	0	0	0	0
309.9075548086821	0.7528259000000617	2	0	0	0	0	0	0
310.66038070868217	0.7518288000001121	2	49	6789.828548	93.75	0.7343119999995906	2	0
311.4122095086823	0.7516961000001174	1	49	6790.793184	68.75	0.9471192999999403	2	0
312.1639056086824	0.7522498999996969	2	49	6791.42999	81.25	0.8322291999993467	2	0
312.9161555086821	0.751948	1	0	0	0	0	0	0
313.6681035086822	0.7522460999998657	1	49	6792.645273	81.25	0.5433143	1	0
314.42034960868205	0.7526074999996126	2	49	6793.534119	93.75	0.6799147	1	0
315.17295710868166	0.7519763000000239	2	49	6794.344986	93.75	0.7381734000000506	2	0
315.9249334086817	0.7522580000004382	2	49	6795.149119	87.5	0.7903302	2	0
316.6771914086821	0.7534440999997969	2	49	6795.889342	93.75	0.778295	2	0
317.4306355086819	0.7524592999998276	2	49	6796.683145	87.5	0.8186542000003101	2	0
318.18309480868174	0.7521270000006552	2	49	6797.46431	81.25	0.8473598999999012	2	0
318.9352218086824	0.7529214	2	49	6798.135255	93.75	0.7661779000000024	2	0
319.68814320868205	0.7536614999999074	1	49	6798.961191	81.25	0.8391925999994783	2	0
320.44180470868196	0.7525144000001092	2	0	0	0	0	0	0
321.19431910868207	0.7532503	2	49	6800.161186	75	0.5330115999995542	1	0
321.9475694086823	0.7536531999994622	2	49	6800.830219	62.5	0.44879450000007637	1	0
322.70122260868175	0.7529554000002463	2	49	6801.680298	75	0.5452198000002682	1	0
323.454178	0.7532497000001968	2	49	6802.674274	87.5	0.7862410999996428	2	0
324.2074277086822	0.7520722999997815	2	49	6803.238308	87.5	0.5970251999997345	1	0
324.95950000868197	0.7526390000002721	2	49	6804.204077	87.5	0.8107214000001477	2	0
325.71213900868224	0.753393	2	49	6805.052957	75	0.9069628999995984	2	0
326.4655320086822	0.7525982999995904	2	49	6805.786427	75	0.8870401999993192	2	0
327.2181303086818	0.7523089000005712	2	49	6806.759512	50	1.107526599999801	2	0
327.97043920868236	0.7538343	1	0	0	0	0	0	0
328.7242735	0.7524944999995569	2	49	6808.104372	68.75	0.9462436000003436	2	0
329.4767680086816	0.7521513000001505	2	49	6808.830455	75	0.9198322000002008	2	0
330.2289193086817	0.7529610999999932	2	49	6809.548514	75	0.8857398000000103	2	0
330.9818804086817	0.7528900000006615	2	49	6810.272901	81.25	0.8571654000006674	2	0
331.7347704086824	0.7517343999998047	2	49	6810.919265	93.75	0.7506389999998646	2	0
332.4865048086822	0.7526935999994748	2	49	6811.643519	100	0.7231590999999753	1	0
333.23919840868166	0.7525485000005574	2	49	6812.51368	81.25	0.8406265000003259	2	0
333.9917469086822	0.7541475999996692	2	49	6813.231787	87.5	0.8061849999994593	2	0
334.7458945086819	0.7528752999996868	2	49	6813.981743	87.5	0.8019933	2	0
335.4987698086816	0.7524882000006983	2	49	6815.004555	50	1.0719297	2	0
336.25125800868227	0.7521418999995149	2	49	6815.732894	56.25	1.0477807999996003	2	0
337.0033999086818	0.7523403000004691	1	0	0	0	0	0	0
337.75574020868225	0.7520737999993798	2	49	6816.505769	50	0.3161737999998877	1	0
338.50781400868163	0.7541721000006874	2	49	6817.735785	87.5	0.7941156000006231	2	0
339.2619861086823	0.7536474999997154	2	0	0	0	0	0	0
340.01563360868204	0.7520762000003742	2	49	6818.944838	68.75	0.49534899999980553	1	0
340.7677098086824	0.7520158999996056	2	49	6819.556748	56.25	0.3551828999998179	1	0
341.5197257	0.7524696999998923	2	49	6820.352972	56.25	0.39939159999994445	1	0
342.2721954086819	0.7522618000002694	2	49	6821.111772	62.5	0.40572100000008504	1	0
343.0244572086822	0.7518025999997917	2	49	6822.199945	93.75	0.7416330999994898	2	0
343.77625980868197	0.7529275999995662	2	49	6823.107819	75	0.8977042	2	0
344.52918740868154	0.7517400000006091	2	0	0	0	0	0	0
345.28092740868215	0.7525315000002593	2	49	6824.445018	100	0.7302351999996972	1	0
346.0334589086824	0.7533147999993162	2	49	6825.274165	87.5	0.8068506999998135	2	0
346.7867737086817	0.7522657999998046	1	49	6825.944791	100	0.7241626000004544	1	0
347.5390395086815	0.7527978000007352	2	49	6827.044064	50	1.0711690000007366	2	0
348.29183730868226	0.7533776000000216	2	49	6827.822932	50	1.0972390999995696	2	0
349.0452149086823	0.7534312999996473	1	0	0	0	0	0	0
349.79864620868193	0.7532732999998188	2	49	6829.103056	81.25	0.8705546	2	0
350.55191950868175	0.7527782000006482	2	49	6829.779998	87.5	0.7942229000000225	2	0
351.3046977086824	0.7516313999994964	1	49	6830.48323	93.75	0.7446774000000005	2	0
352.0563291086819	0.7527775999997175	2	49	6831.396501	75	0.9063171999996484	2	0
352.8091067086816	0.7515758	2	49	6832.042342	87.5	0.7993799	2	0
353.56068250868157	0.7527880000006917	2	49	6832.80563	87.5	0.8110925000000861	2	0
354.31347050868226	0.7525064999999813	2	49	6833.374337	87.5	0.6270110999994358	1	0
355.06597700868224	0.7518732999997155	2	49	6834.357273	81.25	0.8574408999993466	2	0
355.81785030868195	0.7519296999998915	2	49	6835.48738	31.25	1.235674999999901	2	0
356.56978000868185	0.7533405000003768	2	49	6835.975247	62.5	0.9716116999998121	2	0
357.3231205086822	0.7522314999996524	2	49	6836.777328	56.25	1.0203523000000132	2	0
358.0753520086819	0.7519043000002057	2	49	6837.486278	62.5	0.9770711999999548	2	0
358.8272563086821	0.7511251999994784	2	49	6838.231682	62.5	0.9705702000001111	2	0
359.57838150868156	0.7520786000004591	2	0	0	0	0	0	0
360.3304601	0.7525554000003467	2	49	6839.177439	62.5	0.4131234999995286	1	0
361.08301550868237	0.7522030999998606	2	49	6839.808436	43.75	0.29156569999940984	1	0
361.8352186086822	0.7523551999993288	2	49	6841.276852	62.5	1.0077787000000171	2	0
362.58757380868155	0.7524428000006083	2	49	6841.897601	75	0.8761716000008164	2	0
363.34001660868216	0.7534591	2	49	6842.52257	93.75	0.7486982000000353	2	0
364.0934757086816	0.7526741000001493	2	49	6843.34175	87.5	0.8144189000004189	2	0
364.84614980868173	0.7524266999998872	2	49	6844.003549	100	0.7235441000002538	1	0
365.5985765086816	0.7520870000007562	2	49	6844.900675	81.25	0.8682435999999143	2	0
366.3506635086824	0.7523900999995021	2	49	6845.707605	68.75	0.9230858999999327	2	0
367.1030536086819	0.7520831000001635	2	0	0	0	0	0	0
367.85513670868204	0.7525017999996635	1	49	6847.040377	93.75	0.7513855	2	0
368.6076385086817	0.7530482000001939	1	49	6847.910849	75	0.8693557000005967	2	0
369.3606867086819	0.7533973999998125	2	0	0	0	0	0	0
370.1140841086817	0.7534024000005957	2	49	6849.320696	93.75	0.7727566000003208	2	0
370.8674865086823	0.7522953999996389	2	49	6850.145942	81.25	0.8445999999994456	2	0
371.61978190868194	0.7520566000002873	2	49	6850.967827	75	0.9141901	2	0
372.37183850868223	0.7531488999993599	2	49	6851.691692	75	0.8859986999996181	2	0
373.1249874086816	0.7527622000006886	2	49	6852.377867	87.5	0.8190241000002061	2	0
373.8777496086823	0.752901	2	49	6853.248965	68.75	0.9373601999996026	2	0
374.6306506086821	0.7525602	2	49	6854.136785	50	1.0722795000001497	2	0
375.3832108086817	0.7533932000005734	2	49	6854.733992	75	0.9169265	2	0
376.1366040086823	0.7527384999993956	2	49	6855.455888	75	0.8854284999997617	2	0
376.8893425086817	0.7526709000003393	2	0	0	0	0	0	0
377.64201340868203	0.7521307	2	49	6856.732433	93.75	0.6565649000003759	1	0
378.39414410868176	0.7529278000001796	2	49	6857.445145	87.5	0.6171456000001854	1	0
379.14707190868194	0.7526975000000675	2	49	6858.530227	68.75	0.9493003	2	0
379.8997694	0.7524340999998458	2	49	6859.112058	93.75	0.7784333999998125	2	0
380.65220350868185	0.7518824999997378	2	49	6859.908113	87.5	0.8220541999999114	2	0
381.4040860086816	0.7529975000006743	2	49	6860.719943	75	0.8820017000007283	2	0
382.15708350868226	0.7528216999999131	2	49	6861.316118	100	0.7251791999997295	1	0
382.9099052086822	0.7526182000001427	2	49	6862.151337	87.5	0.8075769999995828	2	0
383.6625234086823	0.7525800999992498	1	0	0	0	0	0	0
384.41510350868157	0.7530523000004905	2	49	6863.583119	93.75	0.7341608	2	0
385.16815580868206	0.7528264000002309	2	49	6864.457469	81.25	0.8554584	2	0
385.9209822086823	0.7618572999999742	2	49	6865.220301	81.25	0.8654637999998158	2	0
386.68283950868226	0.7521797999997943	2	49	6865.934266	87.5	0.8175714999997581	2	0
387.43501930868206	0.7526194000001851	2	49	6867.010406	43.75	1.1415313999996215	2	0
388.18763870868224	0.7534168	2	49	6867.529571	75	0.9080768	2	0
388.94105550868153	0.7516115	2	49	6868.595382	31.25	1.2204711000003954	2	0
389.6926670086823	0.7530581999999413	2	49	6869.073341	68.75	0.9468191999994815	2	0
390.44572520868223	0.7517619000000195	2	49	6869.977244	50	1.097663300000022	2	0
391.19748710868225	0.7526778000001286	2	49	6870.641187	62.5	1.0098450999994384	2	0
391.9501649086824	0.7529768999993394	2	49	6871.282378	75	0.8983575999991444	2	0
392.7031418086817	0.7536954000006517	2	49	6871.974453	81.25	0.8374565000003713	2	0
393.4568372086824	0.7526669999997466	2	49	6872.566512	93.75	0.6758192999996027	1	0
394.2095042086821	0.7530850000002829	2	49	6873.303519	93.75	0.6601595000001907	1	0
394.9625892086824	0.7518086999998559	2	49	6874.194672	87.5	0.7982277999999496	2	0
395.71439790868226	0.7533141999992949	2	49	6874.888663	93.75	0.7404097999997248	2	0
396.46771210868155	0.7534115	2	49	6875.660532	93.75	0.7589651000007507	2	0
397.2211236086823	0.7522704	2	49	6876.618616	68.75	0.9636375999998563	2	0
397.9733940086817	0.7523887000006653	2	49	6877.212791	87.5	0.8055417000005036	2	0
398.72578270868235	0.7531208999998853	2	49	6878.118617	68.75	0.9589793999994072	2	0
399.47890360868223	0.7556912999998531	2	49	6878.795489	75	0.8827302	2	0
400.2345949086821	0.7521544999999605	1	49	6879.650609	62.5	0.9821584999999686	2	0
400.98674940868204	0.7529193000000305	2	49	6880.378613	68.75	0.9580086	2	0
401.7396687086821	0.7524689000001672	2	49	6881.250736	50	1.077212099999997	2	0
402.49213760868224	0.7524524000000383	2	0	0	0	0	0	0
403.2445900086823	0.7525391999997737	2	49	6882.381999	100	0.7035539999997127	1	0
403.99712920868205	0.7534481000002415	1	49	6883.272797	81.25	0.8418130999998539	2	0
404.7505773086823	0.7520534999994197	2	0	0	0	0	0	0
405.5026308086817	0.7525101000001087	2	49	6884.461024	75	0.5245383999999831	1	0
406.2551409086818	0.7519493999998303	2	49	6885.347153	93.75	0.6581565000005867	1	0
407.00709030868165	0.7522283000007519	2	49	6886.173925	93.75	0.7329798999999184	2	0
407.7593186086824	0.7517819999993662	2	49	6886.863762	93.75	0.6705881999996564	1	0
408.5111006086818	0.7528812999998991	2	49	6887.623915	93.75	0.6789594000001671	1	0
409.26398190868167	0.7527132000004713	2	49	6888.513981	87.5	0.8161435000001802	2	0
410.01669510868214	0.7527165000001332	2	49	6889.261429	87.5	0.8108788999998069	2	0
410.7694116086823	0.7517297999993389	2	49	6890.072039	81.25	0.8687724000001253	2	0
411.5211414086816	0.7538350000004357	2	49	6890.945912	62.5	0.9909156	2	0
412.27497640868205	0.7528707000001305	1	49	6891.529978	87.5	0.8211467000000994	2	0
413.0278471086822	0.7525334000001749	2	49	6892.414302	68.75	0.9525994999994509	2	0
413.78038050868236	0.7533806999999797	1	49	6893.085244	75	0.8710084999993342	2	0
414.53376120868234	0.7526085999998031	2	49	6893.891968	68.75	0.9243513999999777	2	0
415.28636980868214	0.7526994999998351	2	49	6894.514101	87.5	0.7938757000001715	2	0
416.0390693	0.7520056000003024	2	49	6895.26211	87.5	0.7891854999998031	2	0
416.7910749086823	0.7526217999993605	2	49	6895.988509	93.75	0.7635786999999254	2	0
417.54369670868164	0.7519035000004806	2	49	6896.713115	93.75	0.7355631999998877	2	0
418.2956002086821	0.752836	2	49	6897.486025	93.75	0.7565698	2	0
419.0484362086818	0.7526815999999599	2	49	6898.279915	87.5	0.7976241000005757	2	0
419.80111780868174	0.7526273	1	49	6898.892251	93.75	0.6572782000002917	1	0
420.55374510868205	0.753433	2	49	6899.714818	100	0.7272174999998242	1	0
421.3071781086819	0.7521759999999631	2	49	6900.473488	100	0.7324550000003001	1	0
422.0593541086819	0.7525336999997307	2	49	6901.398135	75	0.9049254999999903	2	0
422.8118878086816	0.7526485000007597	2	49	6902.084291	81.25	0.8385479000007763	2	0
423.56453630868236	0.7524435999994239	2	49	6903.053259	56.25	1.054867099999683	2	0
424.3169799086818	0.7523854999999458	2	49	6903.573263	87.5	0.8224281	2	0
425.06936540868173	0.7526324999998906	1	49	6904.327529	87.5	0.8243088999997781	2	0
425.8219979086816	0.7522509000000355	2	49	6905.039411	87.5	0.7835576000006768	2	0
426.57424880868166	0.7532120000005307	2	49	6906.082454	50	1.074350100000629	2	0
427.3274608086822	0.7518073000001095	2	0	0	0	0	0	0
428.0792681086823	0.7525652999993326	2	49	6907.216566	100	0.7034427999997206	1	0
428.83183340868163	0.7526276000007783	2	49	6907.96546	100	0.6997713999999178	1	0
429.5844610086824	0.7516499999992448	2	49	6908.776782	93.75	0.7584657999996125	2	0
430.33611100868166	0.7519816	2	49	6909.493516	100	0.7235496000002968	1	0
431.0880926	0.7527477000003273	2	49	6910.206541	93.75	0.6845937	1	0
431.84084030868235	0.7525740999999471	2	49	6911.370526	50	1.0958308999997826	2	0
432.5934144086823	0.7527089999994132	2	49	6911.802711	93.75	0.7754416999996465	2	0
433.3461234086817	0.7526456000005055	2	49	6912.669642	75	0.8896637000007104	2	0
434.0987690086822	0.7521368999996412	1	49	6913.650578	43.75	1.117953399999351	2	0
434.85090590868185	0.7527834000002258	1	0	0	0	0	0	0
435.6036893086821	0.7535370999994484	2	49	6915.115682	50	1.0781373999998323	2	0
436.3572264086815	0.7521124	2	49	6915.718881	68.75	0.9277992000006634	2	0
437.10933880868197	0.7528846	2	49	6916.438693	75	0.8954990000001999	2	0
437.86222340868153	0.7528711000004478	2	49	6917.066773	93.75	0.7706944999999905	2	0
438.6150945	0.7527644000001601	2	49	6917.671929	87.5	0.6229788999999073	1	0
439.36785890868214	0.7532461999999214	2	49	6918.519063	100	0.7173488999997062	1	0
440.12110510868206	0.7527638000001389	2	49	6919.583809	56.25	1.028849000000264	2	0
440.8738689086822	0.7531293000001824	2	0	0	0	0	0	0
441.6269982086824	0.7528536999998323	2	49	6920.986298	68.75	0.9254446999993888	2	0
442.3798519086822	0.7522981000001892	2	49	6921.836968	56.25	1.0232605999999578	2	0
443.1321500086824	0.7523583999991388	2	0	0	0	0	0	0
443.88450840868154	0.7530437000004895	2	49	6923.103335	87.5	0.7849711000008028	2	0
444.63755210868203	0.7515664000002289	2	49	6924.1124	56.25	1.0409927000000607	2	0
445.38911850868226	0.7522748000001229	2	49	6924.915691	50	1.0927170999993905	2	0
446.1413933086824	0.7525966999992306	1	0	0	0	0	0	0
446.8939900086816	0.7523713000000498	2	49	6926.170059	81.25	0.8422141	2	0
447.64636130868166	0.7523068000000421	2	49	6927.022137	68.75	0.9419209000006958	2	0
448.3986681086817	0.7524948000000222	2	0	0	0	0	0	0
449.1511629086817	0.7529087000002619	2	49	6928.420168	81.25	0.8351499000000331	2	0
449.9040716	0.7523221999999805	2	49	6929.195253	81.25	0.8573266000003059	2	0
450.65639380868197	0.7526200000002063	2	49	6930.239267	43.75	1.1490179000002172	2	0
451.4090138086822	0.7529564999995273	2	0	0	0	0	0	0
452.1619703086817	0.7526674000000639	2	49	6931.326632	93.75	0.7308069999999134	2	0
452.91463770868177	0.7528633000001719	2	49	6932.532691	37.5	1.1841985999999451	2	0
453.66750100868194	0.7526981000000887	1	49	6933.247364	43.75	1.1460075000004508	2	0
454.4201991	0.7525316000001112	1	0	0	0	0	0	0
455.17273070868214	0.7523378999994748	2	49	6934.453299	81.25	0.8467136	2	0
455.9250686086816	0.7526358	2	49	6935.418422	56.25	1.0594985	2	0
456.6777044086821	0.7531927999998516	2	49	6936.150298	56.25	1.0387384999994538	2	0
457.4308972086819	0.7567251999998916	1	49	6936.752322	75	0.8875699999998687	2	0
458.1876224086818	0.7533487999999124	2	49	6937.459388	81.25	0.8379107000000658	2	0
458.94097120868173	0.7521772999998575	2	49	6938.215464	81.25	0.8406374000005599	2	0
459.6931485086816	0.7519781999999395	2	49	6938.972549	81.25	0.8455458000007638	2	0
460.4451267086815	0.7525353000000905	2	49	6939.97232	50	1.0933381000004374	2	0
461.1976620086816	0.7522837000005893	1	49	6940.496467	81.25	0.8649498000004314	2	0
461.9499457086822	0.7530339999993885	1	49	6941.158525	93.75	0.7747240999997302	2	0
462.7029797086816	0.7536150000005364	2	49	6942.111458	62.5	0.9746234000003824	2	0
463.45659470868213	0.7522375999997166	1	49	6942.841671	68.75	0.9512214999995194	2	0
464.20883230868185	0.7529218999998193	1	49	6943.578544	68.75	0.9358567999997831	2	0
464.96175420868167	0.7512875000002168	2	49	6944.301658	75	0.9060482000004413	2	0
465.7130417086819	0.7523942999996507	2	49	6944.973984	81.25	0.8270873999999822	2	0
466.46543600868154	0.7532702000007703	2	49	6945.904572	62.5	1.0052809000007983	2	0
467.2187062086823	0.7525274999998146	2	49	6946.488764	81.25	0.8362021999992066	2	0
467.9712337086821	0.7521544999999605	2	49	6947.236611	81.25	0.8315217999997913	2	0
468.7233882086821	0.7519058	2	49	6947.930751	87.5	0.7735078999994585	2	0
469.4752940086819	0.7527884999999515	2	49	6948.653874	93.75	0.7447245000003022	2	0
470.22808250868184	0.7522856000005049	2	49	6949.40679	93.75	0.7448518999999578	2	0
470.98036810868234	0.7518961999994644	2	49	6950.366138	68.75	0.9519150999994963	2	0
471.7322643086818	0.7527891999998246	2	49	6951.107767	68.75	0.9416472000002614	2	0
472.48505350868163	0.7523121000003812	2	49	6951.919242	62.5	1.0003335999999763	2	0
473.2373656	0.7520833999997194	2	49	6952.708898	56.25	1.0376771	2	0
473.98944900868173	0.7531263000000763	2	49	6953.442786	56.25	1.019481899999846	2	0
474.7425753086818	0.7522785000001022	2	0	0	0	0	0	0
475.4948538086819	0.7519377999997232	2	49	6954.602928	93.75	0.6742186999999831	1	0
476.24679160868163	0.7519845000006171	2	49	6955.540088	81.25	0.8594410000005155	2	0
476.99877610868225	0.7532385999993494	2	49	6956.245076	87.5	0.8124444999994012	2	0
477.7520147086816	0.7528736000003846	1	49	6957.062048	75	0.8761786000004577	2	0
478.5048883	0.7524514999995517	1	0	0	0	0	0	0
479.25733980868154	n/a	0	0	0	0	0	0	0