onset	duration	cue	constant1	timestamp	stimulus_coherence	response_time	response	constant2
20.111534300005587	0.8317019999958575	2	0	0	0	0	0	0
20.943236300001445	0.8248242000045138	2	49	59168.46393	81.25	0.940775	2	0
21.76806050000596	0.8132703999945079	2	49	59169.03622	93.75	0.6882369999948423	1	0
22.581330900000466	0.8159825000038836	2	49	59169.83637	87.5	0.6751153000004706	1	0
23.39731340000435	0.8137654	2	49	59170.8134	87.5	0.8361654999971506	2	0
24.211078800006362	0.8184020999979111	2	49	59171.55163	100	0.7606324	1	0
25.029480900004273	0.8191914999988512	2	49	59172.45087	87.5	0.8414627000020118	2	0
25.848672400003124	0.8262197000003653	2	49	59173.19437	100	0.7657748999990872	1	0
26.67489210000349	0.8230857	2	49	59174.0671	93.75	0.8122854999965057	2	0
27.497977800005174	0.8139918999950169	2	49	59174.85408	100	0.7761744999952498	1	0
28.31196970000019	0.8138506000032066	2	49	59175.7786	81.25	0.8867027000014787	2	0
29.125820300003397	0.8174228999996558	2	49	59176.61651	81.25	0.9107628999990993	2	0
29.943243200003053	0.8206123999989359	2	49	59177.26955	100	0.7463799	1	0
30.76385560000199	0.8195697000046493	2	49	59178.01766	87.5	0.6738776999991387	1	0
31.58342530000664	0.8232623999938369	2	49	59178.89382	93.75	0.7304669999939506	1	0
32.406687700000475	0.8235870000062278	2	49	59179.7427	100	0.7560876999996253	1	0
33.2302747	0.8231390999935684	2	49	59180.69677	87.5	0.8865763999929186	2	0
34.05341380000027	0.8211201000012807	2	49	59181.61573	75	0.9823938000045018	2	0
34.87453390000155	0.8209022000010009	1	0	0	0	0	0	0
35.69543610000255	0.8200493999975151	1	0	0	0	0	0	0
36.51548550000007	0.8223830000060843	2	49	59183.9518	87.5	0.8563893000027747	2	0
37.33786850000615	0.8171106999943731	1	0	0	0	0	0	0
38.154979200000525	0.8228872000036063	2	49	59185.6887	75	0.9538004000060027	2	0
38.97786640000413	0.8126969000004465	2	49	59186.33298	100	0.7751916999986861	1	0
39.79056330000458	0.8175222999998368	2	49	59187.30296	81.25	0.9324768000005861	2	0
40.608085600004415	0.8182049999959418	2	49	59188.01286	93.75	0.8248483999996097	2	0
41.42629060000036	0.8157594000003883	2	49	59188.87297	87.5	0.8667530000020633	2	0
42.242050000000745	0.8101877000008244	2	49	59189.60497	100	0.7829926000049454	1	0
43.05223770000157	0.8189064000034705	1	0	0	0	0	0	0
43.87114410000504	0.8197967999949469	2	49	59191.34098	87.5	0.8899119999987306	2	0
44.69094089999999	0.8190175000054296	1	0	0	0	0	0	0
45.50995840000542	0.8175050999998348	2	49	59193.078	75	0.9881170000007842	2	0
46.32746350000525	0.8055890999967232	2	49	59193.87706	75	0.9696723000015481	2	0
47.133052600001974	0.8259044000005815	2	49	59194.74512	68.75	1.0321461999992607	2	0
47.958957000002556	0.8189650999993319	2	49	59195.61119	62.5	1.0723065999991377	2	0
48.77792210000189	0.8152695000026142	2	49	59196.2582	81.25	0.9003500000035274	2	0
49.5931916	0.8142690999957267	1	49	59197.08811	81.25	0.9149944000018877	2	0
50.40746070000023	0.8260624000031385	2	49	59198.17936	50	1.1919752000030712	2	0
51.23352310000337	0.8237407999986317	2	49	59198.67361	87.5	0.8601668999981484	2	0
52.0572639	0.8189392999993288	2	49	59199.74579	56.25	1.1086035000043921	2	0
52.87620320000133	0.8165784000011627	2	49	59200.58121	56.25	1.125081099999079	2	0
53.69278160000249	0.8274722999994992	2	49	59201.0376	100	0.7648931000003358	1	0
54.52025390000199	0.8230851999978768	2	49	59201.99842	81.25	0.8982401000030222	2	0
55.34333909999987	0.8269333000062034	2	49	59202.99767	62.5	1.074407300002349	2	0
56.17027240000607	0.8205675999997766	2	49	59203.77279	68.75	1.0225945999991382	2	0
56.990840000005846	0.8152609999960987	1	0	0	0	0	0	0
57.806101000001945	0.8139516	2	49	59205.37043	75	0.9844011000022874	2	0
58.620052600002964	0.8203006999974605	2	49	59206.13182	81.25	0.9318427999969572	2	0
59.440353300000424	0.8195279999999912	1	0	0	0	0	0	0
60.259881300000416	0.8140136000001803	2	49	59207.78145	81.25	0.9416501	2	0
61.073894900000596	0.8294440000026952	2	49	59208.4335	100	0.7796868000004906	1	0
61.90333890000329	0.8220973999996204	2	49	59209.64068	50	1.1574191999970935	2	0
62.72543630000291	0.8204790000017965	2	49	59210.24966	75	0.9442999000020791	2	0
63.54591530000471	0.8177849999992759	2	49	59211.32056	50	1.1947184000018751	2	0
64.36370030000398	0.8190039999972214	2	49	59211.79561	87.5	0.8519911999974283	2	0
65.1827043	0.8150091999996221	2	49	59212.52369	100	0.7610621999992873	1	0
65.99771350000083	0.8305079999990994	2	49	59213.49559	81.25	0.9179487000001245	2	0
66.82822149999993	0.8255351000043447	2	49	59214.48891	62.5	1.0807704	2	0
67.65375660000427	0.8153193999969517	2	49	59215.16067	81.25	0.9269884999957867	2	0
68.46907600000122	0.8158565000048839	2	49	59215.87431	93.75	0.8253105000039795	2	0
69.28493250000611	0.8110704999999143	1	49	59216.61621	100	0.7513498	1	0
70.09600300000602	0.8206437999979244	2	49	59217.68085	68.75	1.0049259999941569	2	0
70.91664680000395	0.8207572999963304	2	49	59218.22906	93.75	0.7324901999963913	1	0
71.73740410000028	0.8168344000005163	2	49	59219.13386	93.75	0.8165324000001419	2	0
72.55423850000079	0.8140413	2	49	59219.93779	93.75	0.8036295999991125	2	0
73.36827980000089	0.8185041	2	49	59220.71393	100	0.7657270999989123	1	0
74.18678390000423	0.8254521999988356	1	49	59221.60487	93.75	0.8381604000023799	2	0
75.01223610000307	0.8328369000009843	2	49	59222.45222	87.5	0.8600617999982205	2	0
75.84507300000405	0.8112579000007827	2	49	59223.31218	81.25	0.8871851000003517	2	0
76.65633090000483	0.8258977000004961	2	49	59224.10688	87.5	0.8706252999982098	2	0
77.48222860000533	0.8185888000007253	1	0	0	0	0	0	0
78.30081740000605	0.8192495999974199	2	49	59225.72714	87.5	0.8463979999942239	2	0
79.12006700000347	0.8203553999992437	2	49	59226.52816	93.75	0.8281667999981437	2	0
79.94042240000272	0.8260369999989052	2	49	59227.18976	87.5	0.6694157000019914	1	0
80.76645940000162	0.8297621000019717	1	0	0	0	0	0	0
81.5962215	0.8226961999971536	2	49	59228.94623	100	0.7700859999968088	1	0
82.41891770000075	0.8185284999999567	2	49	59229.9432	81.25	0.9443548000053852	2	0
83.2374462	0.8269567000024836	2	49	59230.53855	93.75	0.7211782000013045	1	0
84.06440290000319	0.8161225000003469	2	49	59231.33345	93.75	0.6891209000023082	1	0
84.88052540000353	0.8109536999982083	2	49	59232.14837	93.75	0.6879264000017429	1	0
85.69147910000174	0.8218133000045782	2	49	59232.99259	93.75	0.7211847	1	0
86.51329240000632	0.8125068999943323	1	0	0	0	0	0	0
87.32579930000065	0.8118521	2	49	59234.8213	81.25	0.9155787000054261	2	0
88.13765140000032	0.8252326000001631	2	49	59235.56342	93.75	0.8458411000028718	2	0
88.96288400000049	0.8210906000022078	2	49	59236.43844	81.25	0.8956344000034733	2	0
89.7839746	0.8105243000027258	1	0	0	0	0	0	0
90.59449890000542	0.8113624999969034	2	49	59238.07659	81.25	0.9021711999957915	2	0
91.40586140000232	0.8235476999980165	2	49	59238.96744	75	0.9816548000017065	2	0
92.22940910000034	0.8378783000007388	2	49	59239.74089	81.25	0.9315570000035223	2	0
93.06728740000108	0.8243532000051346	2	49	59240.55078	81.25	0.9035669000004418	2	0
93.89164060000621	0.8204280999998446	2	49	59241.22448	100	0.7529167999964557	1	0
94.71206870000606	0.8175515999973868	2	49	59242.18992	81.25	0.8979304999957094	2	0
95.52962030000344	0.8137963999979547	2	49	59242.9308	93.75	0.8212528000003658	2	0
96.3434167	0.8243206000042846	2	49	59243.71379	100	0.7904467000043951	1	0
97.16773730000568	0.8200705999988713	2	49	59244.55702	93.75	0.8093583000008948	2	0
97.98780790000455	0.8252068	2	49	59245.30197	93.75	0.7342355	1	0
98.81301470000471	0.8050963999994565	1	49	59246.32765	75	0.9347133999981452	2	0
99.61811110000417	0.8112144999977318	2	49	59246.83562	87.5	0.6375901999999769	1	0
100.4293256000019	0.8166568000015104	2	49	59248.00183	75	0.9925806000028388	2	0
101.24598240000341	0.8147475000005215	2	49	59248.55585	93.75	0.7299446999968495	1	0
102.06072990000393	0.8173352000012528	2	49	59249.56292	81.25	0.9222671999959857	2	0
102.87806510000519	0.8070656999989296	2	49	59250.45087	68.75	0.9928824999951757	2	0
103.68513080000412	0.8186685999971814	2	49	59251.28892	68.75	1.0238631999964127	2	0
104.5037994000013	0.8146938999998383	2	49	59252.0005	81.25	0.9167773	2	0
105.31849330000114	0.8273537999994005	2	49	59252.70886	93.75	0.8104467000011937	2	0
106.14584710000054	0.8153795000034734	2	49	59253.77202	62.5	1.046247600002971	2	0
106.96122660000401	0.8100856000019121	2	49	59254.62809	62.5	1.0869440000024042	2	0
107.77131220000592	0.8120956999991904	1	0	0	0	0	0	0
108.58340790000511	0.8118268999969587	2	49	59255.9501	93.75	0.7867712000006577	2	0
109.39523480000207	0.8135402999978396	2	49	59256.87608	81.25	0.9009256999997888	2	0
110.20877509999991	0.8203351000047405	2	49	59257.63219	93.75	0.8434963000036078	2	0
111.02911020000465	0.8159374	2	49	59258.4982	81.25	0.8891688000003342	2	0
111.84504759999982	0.8166868000043905	2	49	59259.29053	87.5	0.8655579000042053	2	0
112.6617344000042	0.8258505	2	49	59260.0551	93.75	0.813441	2	0
113.48758490000182	0.8104049	2	49	59260.9622	81.25	0.8946942000038689	2	0
114.29798980000487	0.8305031999989296	2	49	59261.83725	75	0.9593387999993865	2	0
115.1284930000038	0.8230027999961749	2	49	59262.55212	93.75	0.8437059999996563	2	0
115.95149579999998	0.8374128000068595	2	49	59263.46339	81.25	0.9319669000033173	2	0
116.78890860000683	0.8249048999932711	2	49	59264.10552	93.75	0.7366852999984985	1	0
117.6138135000001	0.8260773000001791	2	49	59265.02333	93.75	0.8295920000018668	2	0
118.43989080000028	0.8190759000062826	2	49	59265.81537	93.75	0.7955540000039036	2	0
119.25896670000657	0.8173220999960904	2	49	59266.67745	93.75	0.8385559999951511	2	0
120.07628880000266	0.8095669000031194	2	49	59267.69151	68.75	1.0353020999973523	2	0
120.88585570000578	0.8128467999995337	2	49	59268.33055	87.5	0.8647729999938747	2	0
121.69870250000531	0.8208451999962563	2	49	59269.10768	93.75	0.8290558000007877	2	0
122.51954770000157	0.8092561000012211	2	49	59270.02465	81.25	0.9251826	2	0
123.32880380000279	0.8183179999978165	2	49	59270.72454	93.75	0.8158104000031017	2	0
124.1471218000006	0.8155129000006127	2	49	59271.54262	93.75	0.8155757000058657	2	0
124.96263470000122	0.8215784999993048	2	49	59272.44266	81.25	0.9001045000040904	2	0
125.78421320000052	0.8214443000033498	2	49	59273.1336	100	0.7694683000008808	1	0
126.60565750000387	0.8194147999965935	1	0	0	0	0	0	0
127.42507230000047	0.8202840000012657	2	49	59274.91258	81.25	0.9075854000038817	2	0
128.24535630000173	0.8120926999981748	2	49	59275.67184	87.5	0.8465586000020267	2	0
129.0574489999999	0.8229903000028571	2	49	59276.42495	100	0.7875789000026998	1	0
129.88043930000276	0.8237258000008296	1	49	59277.19031	93.75	0.7299521000022651	1	0
130.7041651000036	0.8213227	2	49	59278.31476	68.75	1.0306740000014543	2	0
131.52548780000507	0.8173838000002434	2	49	59278.91915	93.75	0.8137397999962559	2	0
132.3428716000053	0.8220899000007194	2	49	59279.62983	93.75	0.7070396999988589	1	0
133.16496150000603	0.8259914999944158	2	49	59280.523	100	0.7781172999966657	1	0
133.99095300000045	0.8238630000050762	2	49	59281.26487	87.5	0.6939979000017047	1	0
134.81481600000552	0.8127970999994432	2	49	59282.13203	100	0.7372887999954401	1	0
135.62761310000496	0.8168407999983174	1	0	0	0	0	0	0
136.44445390000328	0.8285651999976835	2	49	59283.96736	81.25	0.9429796	2	0
137.27301910000097	0.8169267000048421	2	49	59284.80679	75	0.9538489000042318	2	0
138.0899458000058	0.8142547999959788	2	49	59285.51303	87.5	0.8431616999951075	2	0
138.9042006000018	0.8207048000040231	2	49	59286.22404	93.75	0.7399202000015066	1	0
139.7249054000058	0.8325555999981589	2	49	59286.98105	87.5	0.6762238000010257	1	0
140.55746100000397	0.8258582999987993	2	49	59287.81323	87.5	0.6758413	1	0
141.38331930000277	0.8226661	2	49	59288.66712	93.75	0.7038748999984819	1	0
142.20598540000356	0.8130823000028613	2	49	59289.5079	93.75	0.7219956999979331	1	0
143.01906770000642	0.8093880999949761	1	49	59290.38519	93.75	0.7861944999967818	2	0
143.8284558000014	0.8230928000048152	2	49	59291.39234	75	0.9839637000040966	2	0
144.6515486000062	0.8219840999954613	2	49	59292.14328	81.25	0.9118072999990545	2	0
145.47353270000167	0.8157120000032592	2	49	59292.90661	87.5	0.8531546000012895	2	0
146.28924470000493	0.8162592000007862	2	49	59293.74117	87.5	0.8720021999979508	2	0
147.10550390000571	0.8145631000006688	2	49	59294.49403	93.75	0.8086026999953901	2	0
147.92006700000638	0.8111787999951048	2	49	59295.12133	81.25	0.6213373999999021	1	0
148.7312458000015	0.8233537000051001	2	49	59296.02069	93.75	0.7095237000030465	1	0
149.5545995000066	0.8181851999979699	2	49	59296.89364	100	0.7591195999993943	1	0
150.37278470000456	0.8257096000015736	2	49	59297.6703	93.75	0.7175940000015544	1	0
151.19849430000613	0.8104498999964562	2	49	59298.50057	93.75	0.7221482999957516	1	0
152.0089442000026	0.8205710999973235	2	49	59299.39539	93.75	0.8065208999978495	2	0
152.8295152999999	0.822877	2	49	59300.16046	100	0.7510261000061291	1	0
153.65239230000589	0.8212566000001971	2	49	59300.98032	100	0.7479998999988311	1	0
154.47364890000608	0.8136102999997092	2	49	59301.88556	93.75	0.8319877999965684	2	0
155.2872592000058	0.8213322999945376	2	49	59302.74447	87.5	0.8772872999979882	2	0
156.10859150000033	0.8259474000005866	2	49	59303.76463	62.5	1.0761153000057675	2	0
156.93453890000092	0.8218104	2	49	59304.44066	81.25	0.9261933000016143	2	0
157.75634930000524	0.8246818999978132	2	49	59305.23458	87.5	0.8983070999966003	2	0
158.58103120000305	0.8142685999991954	2	49	59306.07307	81.25	0.9121113	2	0
159.39529980000225	0.8112010000040755	1	0	0	0	0	0	0
160.20650080000632	0.8202945999946678	2	49	59307.67546	87.5	0.8890361999947345	2	0
161.0267954	0.8165655000047991	2	49	59308.48499	87.5	0.8782754000058048	2	0
161.8433609000058	0.8279815999994753	2	49	59309.30664	87.5	0.8833573000010801	2	0
162.67134250000527	0.8171327	2	49	59310.09569	87.5	0.8444232999972883	2	0
163.4884751999998	0.8158518000054755	2	49	59310.79323	93.75	0.7248270000054617	1	0
164.3043270000053	0.8265761000002385	2	49	59311.75942	87.5	0.8751743999964674	2	0
165.13090310000553	0.8183053999964613	2	49	59312.46188	100	0.7510584999981802	1	0
165.9492085	0.8114503000033437	2	49	59313.22789	93.75	0.6987536000015098	1	0
166.76065880000533	0.8132898999974714	2	49	59314.143	93.75	0.8024199999999837	2	0
167.5739487000028	0.8201325999980327	2	49	59315.04189	87.5	0.8880225000029895	2	0
168.39408130000083	0.8156615	2	49	59316.05958	62.5	1.0855766000022413	2	0
169.2097428000052	0.8252595999947516	2	49	59316.54102	100	0.7513573999967775	1	0
170.03500239999994	0.8170039000033285	2	49	59317.45494	93.75	0.8400181000033626	2	0
170.85200630000327	0.8277040999964811	2	49	59318.21362	100	0.7816860000020824	1	0
171.67971039999975	0.8238626000020304	1	0	0	0	0	0	0
172.50357300000178	0.8179273999994621	2	49	59320.07803	75	0.9945340000049328	2	0
173.32150040000124	0.8149724000031711	2	49	59320.82637	81.25	0.9249495000040042	2	0
174.1364728000044	0.8238537	2	49	59321.48577	100	0.7693779999972321	1	0
174.96032650000416	0.8214552999997977	2	49	59322.27173	93.75	0.7314761000016006	1	0
175.78178180000396	0.8148794000007911	2	49	59323.07951	93.75	0.7178064999970957	1	0
176.59666120000475	0.8093711999972584	2	49	59323.97719	93.75	0.8006039999963832	2	0
177.4060324	0.8208668000006583	2	49	59324.90942	81.25	0.9234685000046738	2	0
178.22689920000266	0.8201359000013326	2	49	59325.61327	93.75	0.8064527	2	0
179.0470351	0.8252671000009286	2	49	59326.62434	75	0.9973794999968959	2	0
179.87230220000492	0.8155267999973148	2	49	59327.36748	81.25	0.9152507999970112	2	0
180.68782900000224	0.8271358999991207	2	49	59328.01843	100	0.7506785000005038	1	0
181.51496490000136	0.8230000000039581	2	49	59329.16332	62.5	1.0684370000017225	2	0
182.33796490000532	0.8199849999946309	2	49	59329.69883	100	0.7809418999968329	1	0
183.15794989999995	0.8255091000028187	2	49	59330.6864	81.25	0.9485276000050362	2	0
183.98345900000277	0.8243237999995472	2	49	59331.54535	75	0.9819662000008975	2	0
184.80778280000231	0.8154610999990837	2	49	59332.16749	100	0.7797828000038862	1	0
185.6232439000014	0.8236765000037849	2	49	59332.93057	93.75	0.7274036000017077	1	0
186.44692040000518	0.8184812999970745	2	49	59333.86941	87.5	0.8425673999954597	2	0
187.26540170000226	0.8115472999998019	2	49	59334.75897	81.25	0.913644	2	0
188.07694900000206	0.8221196000013151	2	49	59335.53586	87.5	0.8789907000027597	2	0
188.89906860000337	0.8185872999965795	2	49	59336.47172	68.75	0.9927289999977802	2	0
189.71765589999995	0.8207810000021709	2	49	59337.62028	31.25	1.3226970000032452	2	0
190.53843690000213	0.8178626	2	49	59338.02064	81.25	0.9022790000017267	2	0
191.35629950000293	0.8143456000034348	2	49	59338.71254	100	0.7763180000038119	1	0
192.17064510000637	0.8271372999952291	2	49	59339.558	93.75	0.8074366999935592	2	0
192.9977824000016	0.8234477000005427	2	49	59340.5237	81.25	0.9459951000026194	2	0
193.82123010000214	0.8136272999981884	1	0	0	0	0	0	0
194.63485740000033	0.8223681000017677	2	49	59342.03798	93.75	0.8232008000049973	2	0
195.4572255000021	0.8216006	2	49	59342.89926	87.5	0.8621083	2	0
196.27882610000233	0.8245026000004145	1	49	59343.64325	100	0.7845030000025872	1	0
197.10332870000275	0.8295071000029566	2	49	59344.49093	93.75	0.8076818999979878	2	0
197.9328358000057	0.8337777999986429	2	49	59345.34887	93.75	0.8361068999947747	2	0
198.76661360000435	0.8144744000019273	2	49	59345.95313	81.25	0.6065903999988222	1	0
199.58108800000628	0.8152912000005017	2	49	59347.16774	68.75	1.0067287999991095	2	0
200.39637920000678	0.8155253	2	49	59347.93296	75	0.9566600999969523	2	0
201.21190449999995	0.8206904000035138	2	49	59348.57703	100	0.7852052000016556	1	0
202.03259490000346	0.8229477999993833	2	49	59349.24999	81.25	0.6374730000025011	1	0
202.85554270000284	0.8171172000002116	2	49	59350.18298	100	0.7475153999985196	1	0
203.67265990000305	0.8239417000004323	2	49	59350.94622	93.75	0.6936389999973471	1	0
204.4966016000035	0.8188515000001644	1	0	0	0	0	0	0
205.31545310000365	0.8166242000006605	1	49	59352.79109	87.5	0.8957137999968836	2	0
206.1320773000043	0.8201363999978639	2	49	59353.44889	93.75	0.7368892000013147	1	0
206.95221370000218	0.8164269999979297	2	49	59354.4533	81.25	0.9211637999978848	2	0
207.7686407000001	0.8153200000015204	2	49	59355.21183	87.5	0.8632711000027484	2	0
208.58396070000163	0.8193948000043747	1	0	0	0	0	0	0
209.4033555	0.8147440999964601	2	49	59356.85992	87.5	0.8766405999995186	2	0
210.21809960000246	0.8280899000019417	2	49	59357.59032	100	0.7922972000014852	1	0
211.0461895000044	0.8290103999970597	2	49	59358.45331	93.75	0.8271934000003967	2	0
211.87519990000146	0.8193476000014925	2	49	59359.39855	81.25	0.9434317999985069	2	0
212.69454750000295	0.8144774000029429	2	49	59360.0599	100	0.7854299000027822	1	0
213.5090249000059	0.8139856999987387	2	49	59360.95434	87.5	0.8653957999995328	2	0
214.32301060000464	0.8135436000011396	2	49	59361.67152	100	0.7685884999955306	1	0
215.13655420000578	0.8220894999976736	2	49	59362.62944	81.25	0.9129666000008001	2	0
215.95864370000345	0.8225581000006059	2	49	59363.40866	87.5	0.8700962000002619	2	0
216.78120180000406	0.8122320999973454	2	49	59364.34738	75	0.9862553999992087	2	0
217.5934339000014	0.8155985999983386	2	49	59365.17463	68.75	1.0012690000003204	2	0
218.40903249999974	0.8146170000036363	2	49	59365.99328	68.75	1.0043206000045757	2	0
219.22364950000338	0.8132431999983964	2	49	59366.81677	68.75	1.0132024999984424	2	0
220.03689270000177	0.8204775000049267	2	49	59367.61869	68.75	1.0018702000015764	2	0
220.8573702000067	0.8176373999958741	2	49	59368.35857	81.25	0.9212806999930763	2	0
221.67500760000257	0.8215256999974372	2	49	59369.1947	81.25	0.9397658000016236	2	0
222.4965333	0.8142332000061288	2	49	59369.89915	93.75	0.8226959000021452	2	0
223.31076650000614	0.8160223999948357	1	49	59370.78382	81.25	0.8931329999977606	2	0
224.12678890000097	0.8199094000010518	1	0	0	0	0	0	0
224.94669830000203	0.8207483000005595	2	49	59372.31507	100	0.7884448	1	0
225.7674466000026	0.8095947000037995	2	49	59373.17484	93.75	0.8274708000026294	2	0
226.57704130000639	0.8194252999965101	2	49	59374.11981	75	0.9628429000003962	2	0
227.3964666000029	0.8166396000015084	2	49	59374.96993	68.75	0.9935406	2	0
228.2131062000044	0.8201948999994784	2	49	59375.50387	93.75	0.7108431000015116	1	0
229.03330110000388	0.8163802999988548	2	49	59376.35082	93.75	0.7375949	1	0
229.84968140000274	0.8148214000029839	2	49	59377.05782	81.25	0.6282202000002144	1	0
230.66450280000572	0.8202342000004137	2	49	59378.04195	93.75	0.7975267000001622	2	0
231.48473700000613	0.8081443999981275	2	49	59378.87599	93.75	0.8113288999957149	2	0
232.29288140000426	0.8193290999988676	2	49	59379.62395	100	0.7511427999997977	1	0
233.11221050000313	0.8142353000002913	2	49	59380.67324	75	0.9811085000037565	2	0
233.92644580000342	0.8158360000015819	2	49	59381.37147	87.5	0.8651047000021208	2	0
234.7422818	0.8281551999971271	2	49	59382.19225	87.5	0.8700431	2	0
235.57043700000213	0.8189104999983101	2	49	59383.01382	87.5	0.8634636999995564	2	0
236.38934750000044	0.8234832000016468	2	49	59383.81316	93.75	0.8438876000000164	2	0
237.2128307000021	0.8179147999981069	1	0	0	0	0	0	0
238.0307455000002	0.8254531000056886	2	49	59385.29383	87.5	0.6831590000001597	1	0
238.85619860000588	0.8178804999988643	2	49	59386.19563	100	0.7595131999987643	1	0
239.67407910000475	0.8132191999975475	1	49	59387.22509	75	0.9710884999949485	2	0
240.4872983000023	0.8272585	2	49	59387.9659	87.5	0.8986835000032443	2	0
241.31455680000363	0.8232553999987431	2	49	59388.71029	93.75	0.8158109	2	0
242.13781220000237	0.8129641999985324	2	49	59389.58126	87.5	0.8635202000004938	2	0
242.9507764000009	0.8129097999990336	2	49	59390.4344	81.25	0.9036994999987655	2	0
243.76368619999994	0.8230716	2	49	59391.62063	37.5	1.2770202000028803	2	0
244.5867578000034	0.8241892000005464	2	49	59391.96235	100	0.7956676999965566	1	0
245.41094700000394	0.8133356999969692	2	49	59393.02735	68.75	1.0364838000023155	2	0
246.2242827000009	0.8177727000002051	1	0	0	0	0	0	0
247.04205540000112	0.8151810000053956	2	49	59394.74065	56.25	1.118673700002546	2	0
247.8572364000065	0.8219697999957134	2	49	59395.5777	56.25	1.1405356999966898	2	0
248.67920620000223	0.8155703000011272	2	49	59396.05085	93.75	0.7917173000023467	2	0
249.49477650000335	0.8170836999997846	2	49	59396.93457	87.5	0.8598746	2	0
250.31186020000314	0.8267814999999246	2	49	59397.75647	87.5	0.8646863000030862	2	0
251.13864170000306	0.8266455999983009	1	0	0	0	0	0	0
251.96528730000136	0.8232349	2	49	59399.45474	81.25	0.9095323000001372	2	0
252.78852220000408	0.8279791000022669	1	49	59400.31285	81.25	0.9444022000025143	2	0
253.61650130000635	0.8212281999949482	2	49	59400.9769	100	0.7804782999955933	1	0
254.4377295000013	0.8135821000032593	2	49	59401.80402	93.75	0.7863658999995096	2	0
255.25131160000456	0.8186780999967596	2	49	59402.57953	100	0.7482932	1	0
256.0699897000013	0.8224262000003364	2	49	59403.39273	93.75	0.7428160999988904	1	0
256.89241590000165	0.8180757	2	49	59404.26681	93.75	0.7944695000041975	2	0
257.71049160000257	0.8181406000003335	2	49	59405.18683	81.25	0.8964145999998436	2	0
258.5286322000029	0.8087992000000668	2	49	59405.98078	87.5	0.8722288999997545	2	0
259.33743140000297	0.8208000000013271	2	49	59406.97186	62.5	1.054509000001417	2	0
260.1582314000043	0.8189727999997558	2	49	59407.45033	93.75	0.7121784999981173	1	0
260.97720420000405	0.8224461999998312	2	49	59408.27782	93.75	0.7206967000020086	1	0
261.7996504000039	0.8315174000017578	2	49	59409.19695	93.75	0.8173731999995653	2	0
262.63116780000564	0.8202586999977939	2	49	59410.075	87.5	0.8639057999971556	2	0
263.45142650000344	0.8299282000007224	2	49	59411.01708	75	0.9857272000008379	2	0
264.28135470000416	0.8165598999985377	2	49	59411.8963	68.75	1.0350233999997727	2	0
265.0979146000027	0.8212100000018836	2	49	59412.58201	81.25	0.9041701	2	0
265.9191246000046	0.8192201	2	49	59413.37231	87.5	0.8732631999955629	2	0
266.7383447000029	0.8244860999984667	2	49	59414.24916	81.25	0.9308963000003132	2	0
267.5628308000014	0.8140865000023041	2	49	59415.12527	75	0.9825140000029933	2	0
268.3769173000037	0.8136624999970081	2	49	59415.90907	75	0.9522300000026007	2	0
269.1905798000007	0.816435	2	49	59416.52812	100	0.7576209000035306	1	0
270.00701480000134	0.8286302000051364	2	49	59417.14714	75	0.5602017	1	0
270.8356450000065	0.8246644999962882	2	49	59417.93818	68.75	0.5226169999950798	1	0
271.66030950000277	0.8212473000021419	2	49	59419.17143	81.25	0.9311983000006876	2	0
272.4815568000049	0.8216219999958412	2	49	59420.00521	81.25	0.9437258	2	0
273.30317880000075	0.8179047	2	49	59420.93122	68.75	1.0481154000008246	2	0
274.1210835	0.8328626000002259	2	49	59421.72125	68.75	1.020242500002496	2	0
274.9539461000022	0.8290764999983367	2	49	59422.57441	68.75	1.040542299997469	2	0
275.78302260000055	0.8255019999996875	2	49	59423.30143	81.25	0.9384864	2	0
276.60852460000024	0.8255328000013833	2	49	59424.07263	87.5	0.8841811000020243	2	0
277.4340574000016	0.8182512999992468	1	0	0	0	0	0	0
278.25230870000087	0.8143726999987848	2	49	59425.92447	62.5	1.092233399998804	2	0
279.06668139999965	0.8130384000032791	2	49	59426.31164	87.5	0.6650322000059532	1	0
279.87971980000293	0.8140232000005199	2	49	59427.28755	93.75	0.8279115999976057	2	0
280.69374300000345	0.8142603000014788	2	49	59428.20577	81.25	0.9321035000029951	2	0
281.50800330000493	0.8142645999978413	2	49	59429.07656	75	0.9886324	2	0
282.32226790000277	0.8131610999989789	2	49	59429.77805	87.5	0.8758612000019639	2	0
283.13542900000175	0.8169169000029797	1	0	0	0	0	0	0
283.95234590000473	0.8194291999971028	2	49	59431.52155	75	0.9892848999952548	2	0
284.77177510000183	0.8160828000036418	2	49	59432.22293	87.5	0.8712271000040346	2	0
285.5878579000055	0.8153429999947548	2	49	59433.01255	87.5	0.8447713999994448	2	0
286.40320090000023	0.8216664000065066	2	49	59433.74883	100	0.7657065000021248	1	0
287.22486730000674	0.8195313999967766	2	49	59434.59869	100	0.7938976999939769	1	0
288.0443987000035	0.8164774000033503	2	49	59435.70556	62.5	1.0812395999964792	2	0
288.86087610000686	0.8216971	2	49	59436.27008	93.75	0.8292850999932853	2	0
289.68257319999975	0.8213276000024052	1	49	59437.18782	81.25	0.9253279000040493	2	0
290.50390080000216	0.8173422000036226	2	49	59437.94891	87.5	0.8650868999975501	2	0
291.3212430000058	0.8150745999955689	2	49	59438.93008	68.75	1.0289178999955766	2	0
292.13631760000135	0.8146099000005051	2	49	59439.46448	100	0.7482388999997056	1	0
292.95092750000185	0.8213039000038407	2	49	59440.22579	93.75	0.6949416999996174	1	0
293.7722314000057	0.8130467999944813	2	49	59441.17697	93.75	0.8248158999995212	2	0
294.5852782000002	0.816621	2	49	59441.84711	93.75	0.6819056000022101	1	0
295.4018992000056	0.8178473999942071	2	49	59442.76615	100	0.7843262	1	0
296.2197465999998	0.8150324000016553	2	49	59443.64802	87.5	0.8483473000014783	2	0
297.03477900000144	0.8087856999991345	2	0	0	0	0	0	0
297.84356470000057	0.8183009000058519	2	49	59445.44812	68.75	1.0246331000016653	2	0
298.6618656000064	0.8233350999944378	2	49	59446.19066	81.25	0.9488705999974627	2	0
299.48520070000086	0.8218113000039011	2	49	59446.82045	100	0.7553218000030029	1	0
300.30701200000476	0.8184510999999475	2	49	59448.01531	56.25	1.1283769000001485	2	0
301.1254631000047	0.8165319999970961	2	49	59448.47222	100	0.7668311	1	0
301.9419951000018	0.8207307999982731	2	49	59449.26098	93.75	0.7390599999998813	1	0
302.7627259000001	0.8276361000025645	2	49	59450.08921	100	0.7465563000005204	1	0
303.59036200000264	0.8219384999974864	2	49	59450.87631	93.75	0.7060284999970463	1	0
304.41230050000013	0.8226132000054349	1	49	59451.69512	93.75	0.7028993000058108	1	0
305.23491370000556	0.8257548999972641	2	49	59452.66727	87.5	0.8524327999984962	2	0
306.0606686000028	0.8140768000012031	2	49	59453.50258	87.5	0.8619906000021729	2	0
306.87474540000403	0.8214532999991206	2	49	59454.47534	68.75	1.0206675000008545	2	0
307.69619870000315	0.8177607000034186	2	49	59455.29552	68.75	1.0193961999975727	2	0
308.51395940000657	0.8232434999954421	2	49	59455.89147	93.75	0.7975891999958549	2	0
309.3372029	0.8178507	2	49	59456.7297	93.75	0.8125732999978936	2	0
310.1550536000068	0.8136645999984466	2	49	59457.55137	93.75	0.8163972999973339	2	0
310.96871820000524	0.8173113999946509	1	49	59458.41741	87.5	0.8687691999948584	2	0
311.7860295999999	0.8222006000069086	2	49	59459.29181	81.25	0.9258599000022514	2	0
312.6082302000068	0.8130154999962542	2	49	59460.08803	81.25	0.8998733999978867	2	0
313.42124570000306	0.8228892999977688	2	49	59460.97291	75	0.9717453999983263	2	0
314.2441350000008	0.8194733000054839	2	49	59461.64479	93.75	0.8207337000058033	2	0
315.0636083000063	0.8207758999997168	2	49	59462.68036	68.75	1.036825699993642	2	0
315.8843842	0.8170734999948763	1	0	0	0	0	0	0
316.7014577000009	0.8270823000057135	2	49	59464.30897	68.75	1.0275847000011709	2	0
317.5285400000066	0.8162168999988353	1	0	0	0	0	0	0
318.34475690000545	0.8212773999985075	2	49	59465.93067	68.75	1.0059895000013057	2	0
319.16603430000396	0.8111663	2	49	59466.50009	100	0.7541294999973616	1	0
319.97720060000574	0.8119834999961313	2	49	59467.33192	100	0.7748012000010931	1	0
320.7891841000019	0.8213238	2	49	59468.16869	93.75	0.7995846000048914	2	0
321.61050790000445	0.8173708999966038	2	49	59469.17511	75	0.9846771000011358	2	0
322.42787880000105	0.8161429000028875	2	49	59469.90097	81.25	0.8931655999986106	2	0
323.24402170000394	0.8222641999964253	2	49	59470.54608	93.75	0.7221346000005724	1	0
324.06628590000037	0.8244730000005802	2	49	59471.48087	93.75	0.8346569999994244	2	0
324.89075890000095	0.8163159000032465	1	0	0	0	0	0	0
325.7070748000042	0.8188013999970281	2	49	59473.30616	68.75	1.0191638999967836	2	0
326.5258762000012	0.8297986000034143	2	49	59474.00904	87.5	0.9032369999986258	2	0
327.35567480000464	0.8198076999979094	2	49	59475.06407	56.25	1.1284678	2	0
328.17548250000254	0.8204022	2	49	59475.79708	68.75	1.0416718999986188	2	0
328.9958847000016	0.8178775000051246	2	49	59476.47205	81.25	0.8962444999997388	2	0
329.81376220000675	0.8213039999973262	2	49	59477.19402	93.75	0.8003348999991431	2	0
330.6350662000041	0.8105978000021423	2	49	59478.0396	93.75	0.8246067000000039	2	0
331.4456640000062	0.8193362999954843	1	0	0	0	0	0	0
332.2650003000017	0.8178085000035935	2	49	59479.83814	75	0.9932120000012219	2	0
333.0828088000053	0.8269097000011243	2	49	59480.56012	87.5	0.8973838999954751	2	0
333.9097185000064	0.8117876999967848	2	49	59481.31395	93.75	0.8243092999982764	2	0
334.7215062000032	0.8108336000004783	2	49	59482.33672	68.75	1.0352952999965055	2	0
335.5323398000037	0.8180873000019346	2	49	59482.99008	87.5	0.8778171000012662	2	0
336.3504271000056	0.8188184999962687	2	49	59483.76775	93.75	0.8374034000007669	2	0
337.1692456000019	0.8170249000031617	2	49	59484.55627	93.75	0.8071008999977494	2	0
337.98627050000505	0.8159831000011764	2	49	59485.4354	87.5	0.8692018000001553	2	0
338.8022536000062	0.8090509	2	49	59486.30086	81.25	0.9186826999939512	2	0
339.6113045	0.8189873000010266	2	49	59487.01444	93.75	0.8232137000013608	2	0
340.43029180000303	0.8112773000029847	2	49	59487.85042	87.5	0.8402069000003394	2	0
341.2415691	0.8213945999959833	2	49	59488.82551	68.75	1.0040168999985326	2	0
342.0629637	0.8362774999986868	2	49	59489.61795	75	0.9750618000034592	2	0
342.8992412000007	0.8204081000003498	2	49	59490.27247	93.75	0.7933030000058352	2	0
343.71964930000104	0.8211207999993348	1	0	0	0	0	0	0
344.5407701000004	0.8151165	2	49	59492.02337	81.25	0.9026744000002509	2	0
345.3558866000021	0.8222330999997212	2	49	59492.80948	87.5	0.8736687999989954	2	0
346.17811970000184	0.8257831000009901	2	49	59493.45491	93.75	0.6968624	1	0
347.00390280000283	0.8230750000002445	2	49	59494.50044	81.25	0.9166146999996272	2	0
347.8269778000031	0.8253704000017024	1	49	59495.49366	62.5	1.0867625000028056	2	0
348.6523482000048	0.8230573999971966	2	49	59496.04562	93.75	0.8133452999973088	2	0
349.4754056	0.8235204000011436	1	49	59496.77904	93.75	0.7237109999987297	1	0
350.2989260000031	0.8204694	1	0	0	0	0	0	0
351.1193954000046	0.8254961999991792	2	49	59498.47818	100	0.7788644999964163	1	0
351.94489160000376	0.8182826999982353	2	49	59499.43275	81.25	0.9079358000017237	2	0
352.7631743	0.8156283999996958	2	49	59500.45673	56.25	1.1136325999977998	2	0
353.5788027000017	0.8204616000002716	2	49	59501.10511	75	0.9463835999995354	2	0
354.39926430000196	0.8109861999982968	2	49	59501.99776	68.75	1.018577599999844	2	0
355.21025050000026	0.8266151000061654	2	49	59502.64694	87.5	0.8567690000054426	2	0
356.0368656000064	0.8206735999992816	2	49	59503.5302	81.25	0.9134133999978076	2	0
356.8575392000057	0.8058873999980278	2	49	59504.55106	56.25	1.1135996999946656	2	0
357.66342660000373	0.8155428000027314	2	49	59505.63336	25	1.3900125000000116	2	0
358.47896940000646	0.8177559999967343	1	0	0	0	0	0	0
359.2967254000032	0.8136824000030174	2	49	59507.00239	56.25	1.1257425000003423	2	0
360.1104078000062	0.8137439999991329	2	49	59507.44778	100	0.7574445999998716	1	0
360.92415180000535	0.8224077999984729	2	49	59508.46953	75	0.9654546999954619	2	0
361.7465596000038	0.8132297999982256	2	49	59509.3592	68.75	1.0327166999995825	2	0
362.55978940000205	0.8207706000030157	2	49	59510.38907	43.75	1.2493568999998388	2	0
363.38056000000506	0.8236938999980339	2	0	0	0	0	0	0
364.2042539000031	0.8245488000029582	2	49	59511.75729	75	0.9731101	2	0
365.02880270000605	0.8245146999979625	2	49	59512.85032	43.75	1.2415914999946835	2	0
365.8533174	0.8276133999970625	2	0	0	0	0	0	0
366.6809308000011	0.8298577000023215	2	49	59513.75404	68.75	0.49318230000062613	1	0
367.5107885000034	0.8331192999976338	2	49	59515.0095	81.25	0.9187843999970937	2	0
368.34390780000103	0.8266781999991508	2	49	59515.72025	93.75	0.7964159000039217	2	0
369.1705860000002	0.8254116000025533	1	0	0	0	0	0	0
369.99599760000274	0.8320154000030016	2	49	59517.5473	75	0.9713795999996364	2	0
370.82801300000574	0.8208032999973511	2	49	59518.41325	68.75	1.0053178999951342	2	0
371.6488163000031	0.8278273000032641	2	49	59519.29159	62.5	1.062848399997165	2	0
372.47664360000635	0.8339127999934135	2	49	59520.02743	75	0.9708680999974604	2	0
373.31055639999977	0.8277279	2	49	59520.73161	93.75	0.8411330000017188	2	0
374.13828430000285	0.8182291999983136	2	49	59521.57053	87.5	0.8523178000032203	2	0
374.95651350000117	0.8256001000045217	1	49	59522.64945	56.25	1.1130160000029719	2	0
375.7821136000057	0.8301866999972844	2	49	59523.11449	100	0.7524559999947087	1	0
376.61230030000297	0.8338045999989845	1	0	0	0	0	0	0
377.44610490000196	0.8392153000022518	2	49	59525.11763	62.5	1.0916036999988137	2	0
378.2853202000042	0.8337968999985605	2	49	59525.85274	75	0.9875000999963959	2	0
379.11911710000277	0.8389081999994232	1	49	59526.70205	75	1.0030102000018815	2	0
379.9580253000022	0.8184494000015547	2	49	59527.36688	93.75	0.8289360999988276	2	0
380.77647470000375	0.8315475999988848	2	49	59528.3956	68.75	1.0392013000018778	2	0
381.60802230000263	0.8338847999984864	2	49	59529.24089	68.75	1.0529451000038534	2	0
382.4419071000011	0.8284138000017265	2	49	59530.11195	62.5	1.0901239000013447	2	0
383.27032090000284	0.8162688000011258	2	49	59530.78781	81.25	0.9375656999982311	2	0
384.08658970000397	0.8185861	2	49	59531.47905	93.75	0.8125390999994124	2	0
384.90517580000596	0.8250771999955759	2	49	59532.38071	87.5	0.8956159999943338	2	0
385.73025300000154	0.817735	2	49	59533.28483	75	0.9746496000007028	2	0
386.5479880000057	0.8303563999943435	2	49	59533.95586	93.75	0.8279499999989639	2	0
387.37834440000006	0.8260895000057644	2	49	59534.82092	87.5	0.8626548000029288	2	0
388.2044339000058	0.8156097	2	49	59535.75679	75	0.9724359999963781	2	0
389.0200436000014	0.8229566000009072	2	49	59536.64221	68.75	1.0422400000024936	2	0
389.8430002000023	0.8229370000044582	2	49	59537.42991	68.75	1.0069848999992246	2	0
390.66593720000674	0.8299067999978433	2	0	0	0	0	0	0
391.4958440000046	0.8203352	2	49	59538.97565	81.25	0.8998858999984805	2	0
392.3161792000028	0.8164778999998816	2	49	59539.93032	68.75	1.034217799999169	2	0
393.1326571000027	0.8257515000004787	1	0	0	0	0	0	0
393.95840860000317	0.8203307000003406	2	49	59541.46006	81.25	0.9217328000013367	2	0
394.7787393000035	0.8210861999978079	2	49	59542.34809	75	0.9894248999989941	2	0
395.5998255000013	0.8254549999983283	2	49	59543.03237	87.5	0.8526225	2	0
396.42528049999964	0.8162342000068747	2	49	59543.75215	100	0.7469479999999749	1	0
397.2415147000065	0.8215706999981194	2	49	59544.56221	93.75	0.7407733999934862	1	0
398.06308540000464	0.8137818999966839	2	49	59545.50627	87.5	0.8632643999953871	2	0
398.8768673000013	0.8254876999999397	2	0	0	0	0	0	0
399.70235500000126	0.8233569000003627	2	49	59546.8546	75	0.5723219999999856	1	0
400.5257119000016	0.8228075000006356	1	49	59547.69401	75	0.5883781000011368	1	0
401.34851940000226	0.8197524999995949	1	49	59548.67217	100	0.7437322000041604	1	0
402.16827190000186	0.8141949999990175	2	49	59549.58346	93.75	0.8352697000009357	2	0
402.9824669000009	0.8233980000004522	2	49	59550.41154	87.5	0.8491504000048735	2	0
403.8058649000013	0.8188799000054132	2	49	59551.32078	81.25	0.9349883000031696	2	0
404.62474480000674	0.8167284999944968	1	49	59552.08229	87.5	0.8776271999959135	2	0
405.44147330000123	0.8162001	2	49	59552.86953	87.5	0.8481328999987454	2	0
406.2576734000031	0.8170832000032533	2	49	59553.64505	93.75	0.8074562999972841	2	0
407.07475660000637	0.8209997999947518	1	49	59554.45066	93.75	0.7959811999971862	2	0
407.8957564000011	0.8136760999987018	2	49	59555.43747	75	0.9617919	2	0
408.7094324999998	0.8319246000028215	2	49	59556.26348	75	0.9741228000057163	2	0
409.54135710000264	0.8337481999988086	1	49	59557.10163	75	0.9803487000026507	2	0
410.37510530000145	0.8301802	2	49	59557.948	75	0.9929679999986547	2	0
411.2052855000002	0.8288085000021965	2	49	59558.57778	100	0.7925763000021107	1	0
412.03409400000237	0.8193558999992092	2	49	59559.34973	93.75	0.7357139000014286	1	0
412.8534499000016	0.8208991999999853	2	49	59560.22686	93.75	0.7934833000035724	2	0
413.67434910000156	0.8197584000008646	2	49	59561.23074	75	0.9764662	2	0
414.49410750000243	0.8225821000014548	2	49	59561.9342	87.5	0.8601732	2	0
415.3166896000039	0.8154901000016253	2	49	59563.1295	43.75	1.232889899998554	2	0
416.1321797000055	0.8176777	1	0	0	0	0	0	0
416.94985740000266	0.8166496999983792	2	49	59564.34486	93.75	0.8150774000023375	2	0
417.76650710000104	0.8222332000004826	2	49	59565.31708	75	0.9706507000009879	2	0
418.5887403000015	0.8275071000025491	2	49	59566.02691	87.5	0.8582425999993575	2	0
419.41624740000407	0.8191095000001951	1	0	0	0	0	0	0
420.23535690000426	0.8208702999982052	2	49	59567.67203	87.5	0.8567451999988407	2	0
421.05622720000247	0.8293578000011621	1	0	0	0	0	0	0
421.88558500000363	0.8154372999997577	1	0	0	0	0	0	0
422.7010223000034	0.8111818000033963	2	49	59570.06893	93.75	0.7879866000002949	2	0
423.5122041000068	0.8158649999968475	2	49	59571.1553	62.5	1.0631684999971185	2	0
424.32806910000363	0.8138277999969432	2	49	59571.70807	93.75	0.8000785999975051	2	0
425.1418969000006	0.8208907000007457	1	0	0	0	0	0	0
425.9627876000013	0.8229790000041248	2	49	59573.46713	81.25	0.9244244000001345	2	0
426.78576660000545	0.8285047999961535	2	49	59574.3213	81.25	0.9556054999993648	2	0
427.6142714000016	0.8265175000051386	2	49	59575.19847	68.75	1.0042771000007633	2	0
428.44078890000674	0.8253990999946836	2	49	59576.02416	68.75	1.003447299997788	2	0
429.2661880000014	0.8039373999999953	2	49	59576.82739	68.75	0.9812757000036072	2	0
430.0701254000014	0.8045016000032774	2	49	59577.65215	68.75	1.0020991999990656	2	0
430.8746270000047	0.8213748999987729	2	49	59578.50558	62.5	1.051032600000326	2	0
431.69600190000347	0.8225725000011153	2	0	0	0	0	0	0
432.5185744000046	0.8211407999988296	2	49	59579.87152	100	0.7730196999982581	1	0
433.3397152000034	0.8189743999973871	2	49	59580.7458	93.75	0.8261603999999352	2	0
434.1586896000008	0.8192189000037615	2	49	59581.5984	87.5	0.8597899000014877	2	0
434.97790850000456	0.8293638999966788	2	49	59582.44342	87.5	0.8855863999997382	2	0
435.80727240000124	0.8313684000022477	2	49	59583.39444	75	1.0072491000028094	2	0
436.6386408000035	0.8145011000015074	2	49	59584.15852	81.25	0.9399527999994461	2	0
437.4531419	0.8149015000017243	2	49	59585.14051	56.25	1.107442100001208	2	0
438.2680434000067	0.8163194999942789	2	49	59586.03813	50	1.1901677999994718	2	0
439.0843629	0.8243046999996295	2	49	59586.65213	75	0.9878412000034587	2	0
439.9086676000006	0.8141066000025603	2	49	59587.46528	75	0.9766875999994227	2	0
440.7227742000032	0.8146731000015279	2	49	59588.23085	81.25	0.9281528999999864	2	0
441.5374473000047	0.8127387999993516	2	49	59589.01454	81.25	0.8971738999971421	2	0
442.35018610000407	0.8264526999992086	1	0	0	0	0	0	0
443.1766388000033	0.8332587999975658	2	49	59590.69108	81.25	0.9345183999976143	2	0
444.00989760000084	0.8247421000050963	2	49	59591.62593	68.75	1.036105300001509	2	0
444.83463970000594	0.8208985999954166	2	49	59592.40573	75	0.9911687	2	0
445.65553830000135	0.8205813000022317	2	49	59593.15974	81.25	0.9242769000047701	2	0
446.4761196000036	0.8188229000006686	2	49	59593.93598	87.5	0.8799336000010953	2	0
447.29494250000425	0.8205245999997715	1	0	0	0	0	0	0
448.1154671	0.8241790999963996	2	49	59595.63645	81.25	0.9410628999976325	2	0
448.9396462000004	0.8245547000042279	2	49	59596.401	87.5	0.881427	2	0
449.76420090000465	0.8189041000005091	1	0	0	0	0	0	0
450.58310500000516	0.8151002999948105	2	49	59598.20811	62.5	1.0450838999968255	2	0
451.3982053	0.8221052000008058	2	49	59599.02323	68.75	1.0450997000007192	2	0
452.2203105000008	0.8122833000015817	2	49	59599.69794	81.25	0.8977020000020275	2	0
453.03259380000236	0.8207356999992044	2	49	59600.54009	81.25	0.9275745999984792	2	0
453.85332950000156	0.8311045000009472	1	49	59601.27907	93.75	0.8458219000021927	2	0
454.6844340000025	0.8225678000017069	2	49	59602.16179	87.5	0.8974372000011499	2	0
455.5070018000042	0.8251481999977841	2	0	0	0	0	0	0
456.33215	0.8295407	2	49	59604.04303	56.25	1.130954300002486	2	0
457.16169070000615	0.8230533999958425	2	49	59604.91418	50	1.1725641999946674	2	0
457.9847441	0.8308929	2	49	59605.59777	68.75	1.0331052000037744	2	0
458.8156369999997	0.8159527000025264	2	49	59606.40107	68.75	1.005508700000064	2	0
459.6315897000022	0.8072553	1	0	0	0	0	0	0
460.4388450000042	0.8220318000021507	2	49	59608.19012	50	1.1713488999957917	2	0
461.2608768000064	0.8264681000000564	2	49	59608.74948	81.25	0.9086766999971587	2	0
462.0873449000064	0.8128347999954713	2	49	59609.70443	68.75	1.0371636999989278	2	0
462.9001797000019	0.8228019000016502	2	49	59610.49736	68.75	1.0172605000043404	2	0
463.72298160000355	0.8125186999968719	2	49	59611.31933	68.75	1.0164291999972193	2	0
464.5355003000004	0.8187525000030291	2	49	59612.25354	56.25	1.1381182000041008	2	0
465.35425280000345	0.8203657999983989	2	49	59612.7933	87.5	0.8591262999980245	2	0
466.17461860000185	0.8118780000004335	2	49	59613.82458	62.5	1.070033500000136	2	0
466.9864966000023	0.8167205999998259	2	49	59614.56635	68.75	0.9999313000007533	2	0
467.8032172000021	0.8255446000039228	1	0	0	0	0	0	0
468.62876180000603	0.8214583999942988	2	49	59616.19462	75	0.9859329999962938	2	0
469.45022020000033	0.8136755000014091	2	49	59617.18446	50	1.154312700004084	2	0
470.26389570000174	0.8118851000035647	2	49	59617.89562	62.5	1.0517993000030401	2	0
471.0757808000053	0.8243744999999763	2	49	59618.70974	62.5	1.0540343999964534	2	0
471.9001553000053	0.8240552999995998	2	49	59619.65662	50	1.1765419000003021	2	0
472.7242106000049	0.8251630000013392	1	0	0	0	0	0	0
473.5493736000062	0.8350608999971882	2	49	59621.14557	68.75	1.0162720999942394	2	0
474.3844345000034	0.8236154999976861	2	49	59621.91779	75	0.9534283999964828	2	0
475.2080500000011	0.8240772999997716	2	49	59622.63575	87.5	0.8477743000039482	2	0
476.03212730000087	0.8143822000056389	2	49	59623.55972	75	0.9476744999992661	2	0
476.8465095000065	0.8148918999941088	2	49	59624.6273	43.75	1.2008652999938931	2	0
477.6614014000006	0.8169042000008631	2	0	0	0	0	0	0
478.4783056000015	0.8167965000029653	2	49	59625.5123	62.5	0.45406870000442723	1	0
479.29510210000444	0.8135072000004584	2	49	59626.90012	68.75	1.025091199997405	2	0
480.1086093000049	0.8186574999999721	2	49	59627.72665	68.75	1.0381189999970957	2	0
480.9272668000049	0.8353101	2	49	59628.67202	56.25	1.1648308000003453	2	0
481.76257690000057	0.8193689000036102	2	49	59629.35191	68.75	1.009414200001629	2	0
482.5819458000042	0.8163013000012143	2	49	59630.07034	81.25	0.9084728000016185	2	0
483.3982471000054	0.8165870999946492	2	49	59630.87678	81.25	0.8986116	2	0
484.21483420000004	0.8135495000024093	2	49	59631.64704	87.5	0.8522847000058391	2	0
485.02838370000245	0.8195525999981328	2	49	59632.51096	81.25	0.9026515	2	0
485.8479363000006	0.8096188000054099	2	49	59633.28918	87.5	0.8613255000018398	2	0
486.6575551	0.8155260999992606	2	49	59634.23814	68.75	1.0006624999950873	2	0
487.47308120000525	0.8204689999984112	2	49	59635.02906	75	0.9760514000008698	2	0
488.29355020000366	0.8221449999982724	1	0	0	0	0	0	0
489.11569520000194	0.817932	2	49	59636.77	62.5	1.0743825000026845	2	0
489.93362720000005	0.8216933000003337	2	0	0	0	0	0	0
490.7553205000004	0.8241402999992715	2	49	59637.98814	87.5	0.6528978999995161	1	0
491.57946079999965	0.8183812000061153	2	49	59639.1292	75	0.9698169000039343	2	0
492.39784200000577	0.8153695	2	49	59639.89943	81.25	0.9216622999956599	2	0
493.21321150000585	0.8088601999988896	1	49	59640.77232	75	0.9791812999974354	2	0
494.02207170000474	0.8191560999985086	1	49	59641.41186	93.75	0.8098686000012094	2	0
494.84122780000325	0.8162223000035738	2	49	59642.27695	87.5	0.8558000999983051	2	0
495.6574501000068	0.8215283999961684	2	49	59643.02832	93.75	0.7909514999992098	2	0
496.4789785	0.8273513000021921	1	0	0	0	0	0	0
497.3063298000052	0.8188397999983863	2	49	59644.71927	93.75	0.8330209999985527	2	0
498.1251696000036	0.8159004999979516	2	49	59645.72118	68.75	1.0160914000007324	2	0
498.9410701000015	0.8230685	2	49	59646.37351	87.5	0.8525174000023981	2	0
499.7641386000032	0.8208805999965989	2	49	59647.3675	68.75	1.0234358000016073	2	0
500.5850191999998	0.8223812000069302	2	49	59648.24949	62.5	1.0845488000049954	2	0
501.40740040000674	0.8192569	2	49	59649.0263	68.75	1.0389746000000741	2	0
502.22665730000153	0.8286841	2	49	59649.70455	87.5	0.8979661999983364	2	0
503.05534140000236	0.8163447999977507	2	49	59650.45583	93.75	0.8205613	2	0
503.8716862000001	0.8159730000043055	1	0	0	0	0	0	0
504.6876592000044	0.8172923999954946	2	49	59652.37457	56.25	1.1069883000018308	2	0
505.5049515999999	0.8139911000034772	2	49	59653.01501	81.25	0.9301377000010689	2	0
506.3189427000034	0.8271080999984406	2	49	59653.88461	75	0.9857417000021087	2	0
507.14605080000183	0.8215773000047193	2	49	59654.62489	81.25	0.8989160999990418	2	0
507.96762810000655	0.8171607	2	49	59655.41677	87.5	0.8692182999948272	2	0
508.7847888000033	0.8227101000011317	2	49	59656.52071	50	1.1559953000032692	2	0
509.60749890000443	0.8184245000011288	2	49	59657.14792	75	0.9605030000020633	2	0
510.42592340000556	0.8211754000003566	2	49	59657.74308	93.75	0.7372354999970412	1	0
511.2470988000059	n/a	0	49	59658.49294	87.5	0.6659221000008984	1	0