onset	duration	cue	constant1	timestamp	stimulus_coherence	response_time	response	constant2
20.482233288814314	0.7989525999873877	2	0	0	0	0	0	0
21.28118589	0.8001301999902353	2	0	0	0	0	0	0
22.081316088791937	0.8009854999836534	2	49	684640.262	50	1.1219326000427827	2	0
22.88230158877559	0.7991889000404626	2	49	684640.8549	81.25	0.9138141999719664	2	0
23.681490488816053	0.7996656999457628	2	49	684641.4273	93.75	0.6870659999549389	1	0
24.481156188761815	0.8001565000740811	2	49	684642.1471	81.25	0.6071996000828221	1	0
25.281312688835897	0.8016148000024259	2	49	684642.92	81.25	0.5799308000132442	1	0
26.082927488838322	0.7999161999905482	2	49	684643.6933	75	0.5515698000090197	1	0
26.88284368882887	0.7998115	2	49	684644.4762	75	0.5345981999998912	1	0
27.68265518883709	0.8018747000023723	2	49	684645.4673	100	0.7258429999928921	1	0
28.48452988883946	0.8001821999205276	2	49	684646.2816	100	0.7383154999697581	1	0
29.28471208875999	0.8005649000406265	2	49	684647.0816	100	0.7381575000472367	1	0
30.085276988800615	0.7996478	2	49	684648.0079	87.5	0.8638880000216886	2	0
30.88492478884291	0.8014604999916628	2	49	684648.7352	93.75	0.7915413	2	0
31.686385288834572	0.8002872000215575	2	49	684649.5743	87.5	0.8291881999466568	2	0
32.48667248885613	0.7999167999951169	2	49	684650.2903	100	0.7448486998910084	1	0
33.286589288851246	0.8003706999588758	2	49	684651.2457	81.25	0.9003625999903306	2	0
34.08695998881012	0.8003909999970347	2	49	684652.1976	62.5	1.0518585999961942	2	0
34.88735098880716	0.8004989000037313	2	49	684652.7733	87.5	0.8272206999827176	2	0
35.68784988881089	0.8002513999817893	2	49	684653.3966	87.5	0.6499616999644786	1	0
36.48810128879268	0.7990539000602439	2	49	684654.1878	87.5	0.6409739999799058	1	0
37.28715518885292	0.8024938999442384	2	49	684655.1469	93.75	0.8010006	2	0
38.08964908879716	0.8000219999812543	2	49	684655.9942	87.5	0.8457506999839097	2	0
38.889671088778414	0.8003974000457674	2	49	684656.8107	87.5	0.8622797999996692	2	0
39.69006848882418	0.8005381999537349	1	0	0	0	0	0	0
40.490606688777916	0.8016156000085175	2	49	684658.1538	81.25	0.6044451000634581	1	0
41.292222288786434	0.8005501000443473	2	49	684659.053	93.75	0.7019907999783754	1	0
42.09277238883078	0.7980453999480233	2	49	684659.7967	87.5	0.6451736999442801	1	0
42.890817788778804	0.8003481000196189	2	49	684660.6836	100	0.7340609000530094	1	0
43.69116588879842	0.7986448999727145	2	49	684661.638	81.25	0.8881236000452191	2	0
44.48981078877114	0.7994922	2	49	684662.1917	87.5	0.6431802000151947	1	0
45.28930298879277	0.7997454999713227	2	49	684662.8227	68.75	0.47465440002270043	1	0
46.08904848876409	0.8000087999971583	2	49	684663.607	62.5	0.45921160001307726	1	0
46.88905728876125	0.8007143000140786	1	49	684664.5387	81.25	0.5909297000616789	1	0
47.68977158877533	0.8013504999689758	2	49	684665.3868	87.5	0.6383175000082701	1	0
48.491122088744305	0.8009444000199437	2	49	684666.2048	87.5	0.6549311000853777	1	0
49.29206648876425	0.7998457	2	49	684667.047	93.75	0.6962246000766754	1	0
50.09191218880005	0.8033107999945059	2	49	684667.933	93.75	0.7823355000000447	2	0
50.89522298879456	0.8004075000062585	1	49	684668.698	100	0.7440540000097826	1	0
51.695630488800816	0.8031477000331506	2	49	684669.5622	93.75	0.8078458999516442	2	0
52.49877818883397	0.8025048	2	49	684670.4232	87.5	0.8656184999272227	2	0
53.30128298874479	0.7991553000174463	2	49	684671.0822	100	0.7221359	1	0
54.100438288762234	0.799176	2	49	684671.8754	93.75	0.7161673000082374	1	0
54.899614288820885	0.8010599999688566	2	49	684672.7592	93.75	0.8008281999500468	2	0
55.70067428878974	0.7996033	2	49	684673.5142	100	0.7548005999997258	1	0
56.50027758884244	0.8009892	2	49	684674.2272	87.5	0.6681583999888971	1	0
57.301266788854264	0.7983085999730974	2	49	684675.1511	93.75	0.7910396999213845	2	0
58.09957538882736	0.8005907000042498	2	49	684675.885	100	0.7266775999451056	1	0
58.90016608883161	0.7990024000173435	2	49	684676.696	100	0.7370281999465078	1	0
59.699168488848954	0.8003525999374688	2	49	684677.4642	93.75	0.7063119999365881	1	0
60.49952108878642	0.8002292000455782	1	0	0	0	0	0	0
61.29975029	0.8017358	1	49	684679.0137	87.5	0.6551699999254197	1	0
62.10148608882446	0.7996329999295995	1	49	684679.8433	93.75	0.6830253999214619	1	0
62.90111908875406	0.8006180000957102	2	49	684680.9472	68.75	0.9873665000777692	2	0
63.70173708884977	0.7992694999556988	2	49	684681.9166	50	1.1561272999970242	2	0
64.50100658880547	0.8021168999839574	2	0	0	0	0	0	0
65.30312348878942	0.7999226	2	49	684682.9206	75	0.5587320000631735	1	0
66.10304609	0.8008871999336407	2	49	684683.8173	87.5	0.6555402999510989	1	0
66.90393328876235	0.8017182000912726	2	49	684684.7184	100	0.7556897000176832	1	0
67.70565148885362	0.8009128998965025	2	49	684685.5836	93.75	0.8191622999729589	2	0
68.50656438875012	0.7999175	2	49	684686.3259	100	0.7606277000159025	1	0
69.30648188875057	0.7987176000606269	2	49	684687.1095	100	0.7442387000191957	1	0
70.10519949	0.8012025	2	49	684687.8958	100	0.7318033999763429	1	0
70.90640198881738	0.8004682	2	49	684688.7689	93.75	0.8037699999986216	2	0
71.70687018882018	0.8015096000162885	2	49	684689.7327	75	0.9670590999303386	2	0
72.50837978883646	0.7995611999649554	2	49	684690.2113	87.5	0.6441668	1	0
73.30794098880142	0.7981420999858528	2	49	684690.9619	81.25	0.5952155999839306	1	0
74.10608308878727	0.7997881000628695	2	49	684691.8416	93.75	0.6767699000192806	1	0
74.90587118885014	0.8011235999874771	2	49	684692.8652	81.25	0.9005427999654785	2	0
75.70699478883762	0.8003084999509156	2	49	684693.586	93.75	0.8202954999869689	2	0
76.50730328878853	0.8014440999832004	1	0	0	0	0	0	0
77.30874738877174	0.7993947999784723	1	0	0	0	0	0	0
78.10814218875021	0.8012584000825882	2	49	684695.8818	93.75	0.7149321000324562	1	0
78.90940059	0.8010090999305248	2	49	684696.6553	93.75	0.6871354000177234	1	0
79.71040968876332	0.7993512999964878	2	49	684697.489	93.75	0.7197837000712752	1	0
80.50976098875981	0.8003356	2	49	684698.3093	100	0.7407646999927238	1	0
81.31009658880066	0.8006332999793813	1	49	684699.0721	93.75	0.7032554	1	0
82.11072988878004	0.8017501	2	49	684699.8668	93.75	0.6973002000013366	1	0
82.91247998876497	0.8000185000710189	2	49	684700.6541	93.75	0.6828787000849843	1	0
83.71249848883599	0.7993865	2	49	684701.4521	93.75	0.6808120999485254	1	0
84.51188498875126	0.8005290000000969	1	49	684702.3324	100	0.7617964000673965	1	0
85.31241398875136	0.7998845000984147	2	49	684703.1241	100	0.7529617000836879	1	0
86.11229848884977	0.8002052999800071	2	49	684704.0173	87.5	0.8462159999180585	2	0
86.91250378882978	0.7996696999762207	1	0	0	0	0	0	0
87.71217349	0.8006068000104278	2	49	684705.2962	75	0.5252469000406563	1	0
88.51278028881643	0.7988605999853462	1	49	684706.2123	87.5	0.6408033999614418	1	0
89.31164088880178	0.8004309	2	49	684707.095	100	0.7245765	1	0
90.11207178875338	0.8044518000679091	2	49	684707.853	93.75	0.6822207000805065	1	0
90.91652358882129	0.8308574999682605	1	49	684708.9682	75	0.9928992999484763	2	0
91.74738108878955	0.8024166	2	0	0	0	0	0	0
92.54979768884368	0.7996639999328181	2	49	684710.3528	100	0.7442744999425486	1	0
93.34946169	0.8000664999708533	2	49	684711.3066	81.25	0.8983385000610724	2	0
94.14952818874735	0.8024134000297636	2	49	684711.9764	100	0.7680856001097709	1	0
94.95194158877712	0.8012713000643998	2	49	684712.7682	100	0.7575076000066474	1	0
95.75321288884152	0.8014680999331176	2	49	684713.4694	87.5	0.6574318999191746	1	0
96.55468098877463	0.7997788999928162	2	49	684714.3118	93.75	0.6983922000508755	1	0
97.35445988876745	0.8000023000640795	1	0	0	0	0	0	0
98.15446218883153	0.8002753	2	49	684715.9746	100	0.7614030999829993	1	0
98.95473748876248	0.7988428000826389	2	49	684716.7304	93.75	0.7169073	1	0
99.75358028884511	0.7996024999301881	2	49	684717.6055	93.75	0.7931713999714702	2	0
100.5531827887753	0.8004345999797806	2	49	684718.2864	93.75	0.6744421999901533	1	0
101.35361738875508	0.7998975000809878	2	49	684719.0275	81.25	0.6151237	1	0
102.15351488883607	0.7988059999188408	2	49	684719.8435	87.5	0.6312487999675795	1	0
102.95232088875491	0.8002799	1	0	0	0	0	0	0
103.7526007888373	0.8013528999872506	2	49	684721.4298	81.25	0.6184250999940559	1	0
104.55395368882455	0.8001297	2	49	684722.3345	100	0.7217979999259114	1	0
105.35408338881098	0.8022893000161275	2	49	684723.2296	93.75	0.8167880999390036	2	0
106.1563726888271	0.7985785999335349	2	49	684723.906	93.75	0.6908301999792457	1	0
106.95495128876064	0.8019077000208199	2	49	684724.732	93.75	0.7183377000037581	1	0
107.75685898878146	0.799873	2	49	684725.5157	93.75	0.7001210000598803	1	0
108.55673198879231	0.8019238000269979	2	49	684726.3978	93.75	0.7822685999562964	2	0
109.3586557888193	0.8013120000250638	2	49	684727.167	100	0.7496123	1	0
110.15996778884437	0.801042	2	49	684728.0399	93.75	0.8211728999158368	2	0
110.96100978879258	0.7986404000548646	2	49	684728.7249	93.75	0.7050833000103012	1	0
111.75965018884744	0.8010986	2	49	684729.5533	100	0.7348586999578401	1	0
112.56074878876098	0.8002458000555634	1	0	0	0	0	0	0
113.36099458881654	0.8007777000311762	1	0	0	0	0	0	0
114.16177228884771	0.7990862999577075	2	49	684732.0071	93.75	0.7865249	2	0
114.96085858880542	0.8020062999567017	1	0	0	0	0	0	0
115.76286488876212	0.8007851000875235	1	49	684733.5988	93.75	0.7772084000753239	2	0
116.56364998884965	0.7991281999275088	1	0	0	0	0	0	0
117.36277818877716	0.8016672000521794	2	49	684735.1411	93.75	0.7196028999751434	1	0
118.16444538882934	0.7998295000288635	1	0	0	0	0	0	0
118.9642748888582	0.7990996	1	0	0	0	0	0	0
119.76337448880076	0.8004274000413716	2	49	684737.5572	100	0.7351176	1	0
120.56380188884214	0.7991296999389306	2	49	684738.3325	93.75	0.7099781	1	0
121.36293158878107	0.7978857000125572	2	49	684739.2543	87.5	0.8325639000395313	2	0
122.16081728879362	0.8005432999925688	2	49	684740.0846	87.5	0.8649835	2	0
122.96136058878619	0.8002002000575885	2	49	684740.8764	87.5	0.8563118999591097	2	0
123.76156078884378	0.7986462999833748	2	49	684741.7824	75	0.9620705000124872	2	0
124.56020708882716	0.7987946999492124	2	49	684742.6721	62.5	1.0530981000047177	2	0
125.35900178877637	0.8001654000254348	2	49	684743.2314	93.75	0.8136735999723896	2	0
126.1591671888018	0.8002845000009984	2	49	684743.8291	81.25	0.6111671000253409	1	0
126.9594516888028	0.7993712000316009	2	49	684744.5603	75	0.5420510000549257	1	0
127.7588228888344	0.7998735000146553	2	49	684745.3864	75	0.5687839000020176	1	0
128.55869638884906	0.8008602	2	49	684746.2404	87.5	0.6229077999014407	1	0
129.35955658880994	0.8003727999748662	2	49	684747.1789	100	0.7605587999569252	1	0
130.1599293887848	0.8000892	2	49	684748.0251	93.75	0.8063784000696614	2	0
130.9600185888121	0.8011932999361306	2	49	684748.8317	93.75	0.8129002000205219	2	0
131.76121188874822	0.7981754000065848	2	49	684749.6554	87.5	0.8354453	2	0
132.5593872887548	0.8005347000434995	2	49	684750.4454	87.5	0.8272703000111505	2	0
133.3599219887983	0.7996815999504179	2	49	684751.2145	93.75	0.7958002999657765	2	0
134.15960358874872	0.7984579000622034	2	49	684752.1435	75	0.9251269000815228	2	0
134.95806148881093	0.7999064000323415	2	49	684752.7996	93.75	0.7827752999728546	2	0
135.75796788884327	0.7977633000118658	2	49	684753.6871	81.25	0.8703665999928489	2	0
136.55573118885513	0.7968945999164134	2	49	684754.4626	87.5	0.8481207999866456	2	0
137.35262578877155	0.7960803000023589	2	49	684755.2266	93.75	0.8152049999916926	2	0
138.1487060887739	0.798158	2	49	684756.1845	68.75	0.9770859000273049	2	0
138.9468640887644	0.7976095000049099	2	49	684757.0502	62.5	1.044540600036271	2	0
139.74447358876932	0.7986235	2	49	684757.7009	81.25	0.8976476000389084	2	0
140.54309708881192	0.7996457000263035	2	49	684758.3626	100	0.7607088	1	0
141.34274278883822	0.7996880999999121	1	0	0	0	0	0	0
142.14243088883813	0.8010529999155551	2	49	684759.9662	100	0.7650533	1	0
142.9434838887537	0.7956894000526518	2	49	684760.7158	93.75	0.7135759	1	0
143.73917328880634	0.8021726999431849	2	49	684761.7018	81.25	0.9038378000259399	2	0
144.54134598874953	0.8062847000546753	2	49	684762.3978	93.75	0.7977359000360593	2	0
145.3476306888042	0.7957768000196666	2	49	684763.3999	68.75	0.9934740000171587	2	0
146.14340748882387	0.7966103999642655	2	49	684764.0788	81.25	0.8766710000345483	2	0
146.94001788878813	0.7961142000276595	2	49	684764.7691	93.75	0.7703293999657035	2	0
147.7361320888158	0.7968608000082895	1	0	0	0	0	0	0
148.53299288882408	0.7945811999961734	2	49	684766.337	100	0.7452779000159353	1	0
149.32757408882026	0.7952365	2	49	684767.2069	87.5	0.8205941999331117	2	0
150.12281058880035	0.7958418000489473	1	0	0	0	0	0	0
150.9186523888493	0.7953200999181718	2	49	684768.5999	87.5	0.6225152	1	0
151.71397248876747	0.7954809999791905	2	49	684769.5771	93.75	0.8044198000570759	2	0
152.50945348874666	0.7956879	2	49	684770.307	100	0.7388267000205815	1	0
153.3051413887879	0.7967988000018522	2	49	684771.247	81.25	0.8831265000626445	2	0
154.10194018878974	0.7954316000686958	2	49	684771.9164	100	0.7556921	1	0
154.89737178885844	0.7977924000006169	2	49	684772.6753	100	0.7191411999519914	1	0
155.69516418885905	0.8021661998936906	2	49	684773.5503	93.75	0.7963563998928294	2	0
156.49733038875274	0.7965867000166327	1	0	0	0	0	0	0
157.29391708876938	0.7950669000856578	2	49	684775.0502	93.75	0.6975420999806374	1	0
158.08898398885503	0.7965489999623969	2	49	684776.0365	81.25	0.8887469999026507	2	0
158.88553298881743	0.7963109000120312	2	49	684776.7977	87.5	0.8533707000315189	2	0
159.68184388882946	0.7958518	2	49	684777.6358	81.25	0.8951771999709308	2	0
160.47769568883814	0.7977479000110179	2	49	684778.3223	93.75	0.785836	2	0
161.27544358884916	0.7982379	2	49	684779.0905	100	0.7563365999376401	1	0
162.07368148874957	0.7960631001042202	2	49	684779.9943	87.5	0.8618257000343874	2	0
162.8697445888538	0.7953631	2	49	684780.7774	87.5	0.8488735998980701	2	0
163.66510768875014	0.7954930000705644	2	49	684781.5544	87.5	0.8305681000929326	2	0
164.4606006888207	0.7958492999896407	2	49	684782.3195	93.75	0.8001731999684125	2	0
165.25644998881035	0.7957714999793097	2	49	684783.1085	93.75	0.7933266999898478	2	0
166.05222148878966	0.7951250000623986	2	49	684783.9676	87.5	0.8566489999648184	2	0
166.84734648885205	0.7954475999576971	1	0	0	0	0	0	0
167.64279408880975	0.7945671000052243	2	49	684785.3436	87.5	0.6420379000483081	1	0
168.43736118881498	0.7953627000097185	2	49	684786.2376	100	0.7414521999889985	1	0
169.2327238888247	0.7954639	2	49	684787.1506	87.5	0.8591467	2	0
170.0281877887901	0.7980794999748468	2	49	684787.7996	93.75	0.7126151999691501	1	0
170.82626728876494	0.7954636	2	49	684788.6879	93.75	0.8028351999819279	2	0
171.62173088884447	0.7940143999876454	1	0	0	0	0	0	0
172.4157452888321	0.7954353999812156	2	49	684790.1659	93.75	0.6913969999877736	1	0
173.21118068881333	0.7959612000267953	2	49	684791.1292	87.5	0.859261	2	0
174.00714188884012	0.7992767000105232	2	49	684791.9341	87.5	0.8681771999690682	2	0
174.80641858885065	0.7960686999140307	2	49	684792.5518	93.75	0.6866186999250203	1	0
175.60248728876468	0.7967389000114053	2	49	684793.5566	81.25	0.8953490999992937	2	0
176.39922618877608	0.7970075000775978	1	0	0	0	0	0	0
177.19623368885368	0.7980427999282256	2	49	684794.909	87.5	0.6540239	1	0
177.9942764887819	0.7970830000704154	2	49	684795.763	93.75	0.7099560999777168	1	0
178.79135948885232	0.7961838999763131	2	49	684796.7269	81.25	0.8768244999228045	2	0
179.58754338882864	0.7965813999762759	2	49	684797.513	87.5	0.8667302000103518	2	0
180.3841247888049	0.7971157999709249	2	49	684798.2841	87.5	0.8412018000381067	2	0
181.18124058877584	0.7955805000383407	2	49	684799.1268	81.25	0.8868397000478581	2	0
181.97682108881418	0.7955178000265732	2	49	684799.963	75	0.9274243999971077	2	0
182.77233888884075	0.7952517	1	0	0	0	0	0	0
183.56759058882017	0.7975787000032142	2	49	684801.3886	100	0.7622444999869913	1	0
184.36516928882338	0.7970256999833509	2	49	684802.135	93.75	0.7110615000128746	1	0
185.16219498880673	0.7966619	2	49	684803.0892	81.25	0.8682684	2	0
185.9588568888139	0.7970339000457898	2	49	684803.8033	93.75	0.7856882000342011	2	0
186.7558907888597	0.7957839999580756	2	49	684804.6341	87.5	0.8194265998899937	2	0
187.55167478881776	0.8009180999360979	2	49	684805.4531	87.5	0.8427023999392986	2	0
188.35259288875386	0.7972519000759348	2	49	684806.2573	87.5	0.8459691000171006	2	0
189.1498447888298	0.7963928999379277	2	49	684807.0384	87.5	0.8297523999353871	2	0
189.94623768876772	0.7988888000836596	2	49	684807.8903	81.25	0.8853298000758514	2	0
190.74512648885138	0.7963912999257445	2	49	684808.7115	81.25	0.9076287999050692	2	0
191.54151778877713	0.7981083000777289	2	49	684809.4504	87.5	0.8501143000321463	2	0
192.33962608885486	0.7984657000051811	2	49	684810.2307	87.5	0.8323614998953417	2	0
193.13809178886004	0.7954289999324828	2	49	684811.0956	81.25	0.8987591	2	0
193.93352078879252	0.7990367000456899	2	49	684811.9274	75	0.9351351000368595	2	0
194.7325574888382	0.7959308	2	49	684812.6373	87.5	0.8459505999926478	2	0
195.52848828874994	0.7969660999951884	2	49	684813.3534	100	0.7661141999997199	1	0
196.32545438874513	0.7961700001033023	1	0	0	0	0	0	0
197.12162438884843	0.7954941999632865	2	49	684814.9024	100	0.7220546999014914	1	0
197.91711858881172	0.7986099999397993	2	49	684815.9026	75	0.9266933	2	0
198.71572858875152	0.7973758	2	49	684816.5074	100	0.7328946000197902	1	0
199.51310438883957	0.7968294000020251	2	49	684817.4266	87.5	0.8547759999055415	2	0
200.3099337888416	0.795378	2	49	684818.2407	81.25	0.8719641999341547	2	0
201.1053117888514	0.7955635999096557	2	49	684819.0748	81.25	0.9107302000047639	2	0
201.90087538876105	0.7977780000073835	2	49	684819.8788	75	0.9191322000697255	2	0
202.69865338876843	0.7962723000673577	2	49	684820.8447	56.25	1.0872736000455916	2	0
203.4949256888358	0.7979244999587536	2	49	684821.3719	93.75	0.8182329999981448	2	0
204.29285018879455	0.7962264999514446	2	49	684821.9546	81.25	0.6030398999573663	1	0
205.0890767	0.7953353000339121	1	0	0	0	0	0	0
205.8844119887799	0.7967665999894962	2	49	684823.6187	93.75	0.6755725999828428	1	0
206.6811785887694	0.8743037000531331	2	49	684824.6488	87.5	0.9089124000165612	2	0
207.55548228882253	0.7968331000301987	2	49	684825.296	93.75	0.6817232000175864	1	0
208.35231538885273	0.7974486999446526	2	49	684826.3061	81.25	0.8949901999440044	2	0
209.14976408879738	0.7958842000225559	2	49	684827.013	93.75	0.8044671999523416	2	0
209.94564828881994	0.7981273999903351	2	49	684827.8318	87.5	0.8273584999842569	2	0
210.74377568881027	0.7960278999526054	2	49	684828.5691	100	0.7665413	1	0
211.53980358876288	0.7972194000612944	2	49	684829.362	100	0.7634635000722483	1	0
212.33702298882417	0.7976983	2	49	684830.2432	87.5	0.8473860999802127	2	0
213.13472128880676	0.7967856000177562	2	49	684831.147	75	0.9535099000204355	2	0
213.93150688882452	0.7993082000175491	2	49	684832.0021	68.75	1.011862099985592	2	0
214.73081508884206	0.7962458	2	0	0	0	0	0	0
215.52706088882405	0.7966351999202743	2	49	684833.01	62.5	0.4241892999270931	1	0
216.32369608874433	0.7976282000308856	2	49	684834.003	87.5	0.6205298	1	0
217.1213242887752	0.7960738	2	49	684834.9891	93.75	0.8090073000639677	2	0
217.9173980888445	0.7992567999754101	2	49	684836.0031	62.5	1.0269480999559164	2	0
218.7166548888199	0.7965210999827832	2	49	684836.8903	56.25	1.1148433999624103	2	0
219.5131759888027	0.7988494000164792	2	49	684837.6534	56.25	1.0814649000531062	2	0
220.31202538881917	0.7971430999459699	2	49	684838.2305	87.5	0.8596950999926776	2	0
221.10916848876514	0.7975103000644594	2	49	684839.0643	81.25	0.8963523000711575	2	0
221.9066787888296	0.7996279000071809	1	0	0	0	0	0	0
222.70630668883678	0.7963022999465466	2	49	684840.4923	100	0.7271886999951676	1	0
223.50260898878332	0.7967376000015065	2	49	684841.2785	93.75	0.7171576999826357	1	0
224.29934658878483	0.7970826000673696	1	0	0	0	0	0	0
225.0964291888522	0.7954379000002518	2	49	684842.6444	68.75	0.48924519994761795	1	0
225.89186708885245	0.7981126999948174	2	49	684843.5373	81.25	0.5866476999362931	1	0
226.68997978884727	0.7976412998978049	2	49	684844.4445	93.75	0.6957787999417633	1	0
227.48762108874507	0.7972338000545278	2	49	684845.304	100	0.7575899000512436	1	0
228.2848548887996	0.7980478	2	49	684846.1195	93.75	0.7758384000044316	2	0
229.0829026887659	0.7958656999981031	2	49	684846.9826	87.5	0.8409220000030473	2	0
229.8787684	0.7984451000811532	2	49	684847.6655	100	0.7279710000148043	1	0
230.67721348884515	0.7955555999651551	2	49	684848.3204	81.25	0.5844553000060841	1	0
231.4727690888103	0.7974247999954969	2	49	684849.3947	87.5	0.8631547000259161	2	0
232.2701938888058	0.7988742999732494	2	49	684850.1246	93.75	0.7956716000335291	2	0
233.06906818877906	0.7961161000421271	2	49	684850.9567	87.5	0.8288711999775842	2	0
233.86518428882118	0.7986479	2	49	684851.6887	100	0.7647653999738395	1	0
234.66383218881674	0.7962705999379978	1	49	684852.5046	93.75	0.7820115999784321	2	0
235.46010278875474	0.7980062999995425	2	49	684853.2907	93.75	0.7718812000239268	2	0
236.25810908875428	0.7976110000163317	2	49	684854.1387	87.5	0.8217986000236124	2	0
237.0557200887706	0.7954664999851957	2	49	684854.9967	81.25	0.8822147999890149	2	0
237.8511865887558	0.7972895000129938	2	49	684855.7118	93.75	0.8018567	2	0
238.6484760887688	0.7959741000086069	1	49	684856.6828	68.75	0.9755832999944687	2	0
239.4444501887774	0.7973384000360966	2	49	684857.662	50	1.1587496000574902	2	0
240.2417885888135	0.7970986999571323	2	0	0	0	0	0	0
241.03888728877064	0.7968904000008479	1	0	0	0	0	0	0
241.8357776887715	0.7983001000247896	2	49	684859.413	68.75	0.5184343000873923	1	0
242.63407778879628	0.7977582999737933	2	49	684860.4482	100	0.7553185	1	0
243.43183608877007	0.7961804000660777	2	49	684861.2661	93.75	0.7755408000666648	2	0
244.22801648883615	0.7974517999682575	2	49	684862.1099	87.5	0.8231095999944955	2	0
245.0254682888044	0.7976299000438303	2	49	684862.8342	100	0.7499640999594703	1	0
245.82309818884823	0.7988543999381363	2	49	684863.678	93.75	0.7960954000009224	2	0
246.62195258878637	0.7973424000665545	2	49	684864.583	81.25	0.9022609000094235	2	0
247.41929498885293	0.7977606999920681	2	49	684865.2852	93.75	0.8071689999196678	2	0
248.2170557	0.7987043999601156	2	49	684866.1367	87.5	0.8608720999909565	2	0
249.0157600888051	0.7959015000378713	1	0	0	0	0	0	0
249.81166158884298	0.7992139999987558	2	49	684867.5703	93.75	0.6998511	1	0
250.61087558884174	0.7966986999381334	2	49	684868.3722	93.75	0.7025924999034032	1	0
251.40757428877987	0.7992027000291273	2	49	684869.2127	100	0.7463541000615805	1	0
252.206777	0.7967559000244364	2	49	684870.0022	100	0.7366191999753937	1	0
253.00353288883343	0.7981990999542177	2	49	684870.8381	93.75	0.7758320999564603	2	0
253.80173198878765	0.7986345000099391	2	49	684871.7563	81.25	0.8958051	2	0
254.6003664887976	0.7954805999761447	2	49	684872.3861	100	0.7270096000283957	1	0
255.39584708877373	0.7976931	2	49	684873.2364	93.75	0.7818038000259548	2	0
256.19354018883314	0.7987928999355063	2	49	684873.9705	93.75	0.7181582999182865	1	0
256.99233308876865	0.7961304	2	49	684874.8275	93.75	0.7763920000288635	2	0
257.78846348880325	0.7980183999752626	2	49	684875.5325	93.75	0.6852478999644518	1	0
258.5864818887785	0.7968364000553265	2	49	684876.3756	100	0.7303125000325963	1	0
259.38331828883383	0.7973569999448955	2	49	684877.2525	93.75	0.8103765000123531	2	0
260.18067528877873	0.7968692000722513	2	49	684878.0155	93.75	0.7760740000521764	2	0
260.9775445	0.7963467999361455	2	49	684878.795	100	0.7587150000035763	1	0
261.7738912887871	0.7972064999630675	2	49	684879.7645	75	0.9318766000214964	2	0
262.5710977887502	0.7956344000995159	2	49	684880.5656	75	0.9357606000266969	2	0
263.3667321888497	0.7956108999205753	2	49	684881.2888	87.5	0.8632999999681488	2	0
264.1623430887703	0.7976420000195503	2	49	684882.2066	68.75	0.9855139000574127	2	0
264.95998508878984	0.7953793000197038	2	49	684882.9348	75	0.9160591000691056	2	0
265.75536438880954	0.7977650000248104	2	49	684883.5829	93.75	0.7688124999403954	2	0
266.55312938883435	0.7971611999673769	2	49	684884.3447	100	0.7328190999105573	1	0
267.3502905888017	0.7975167999975383	1	49	684885.1927	93.75	0.7836486999876797	2	0
268.14780738879927	0.7977919999975711	2	49	684885.7683	75	0.5617713000392541	1	0
268.94559938879684	0.7954851	1	0	0	0	0	0	0
269.74108448880725	0.7974446000298485	2	49	684887.504	93.75	0.7041519000194967	1	0
270.5385290888371	0.7968506999313831	2	49	684888.2508	87.5	0.6535021999152377	1	0
271.3353797887685	0.7987708000000566	2	49	684889.074	93.75	0.6798242999939248	1	0
272.13415058876853	0.7988591000903398	2	49	684889.958	100	0.7651157000800595	1	0
272.9330096888589	0.7950645999517292	2	49	684890.8481	87.5	0.8563314999919385	2	0
273.7280742888106	0.7970489000435919	2	49	684891.696	81.25	0.9091425000224262	2	0
274.5251231888542	0.7950188999529928	2	49	684892.4609	81.25	0.8770093	2	0
275.3201420888072	0.7968776000197977	2	49	684893.2339	87.5	0.8549721000017598	2	0
276.1170197	0.7982673000078648	2	49	684893.9222	100	0.7464151999447495	1	0
276.91528698883485	0.7971331999870017	2	49	684894.7801	93.75	0.8060677999164909	2	0
277.71242018882185	0.7976210999768227	2	49	684895.4941	100	0.7229655999690294	1	0
278.5100412887987	0.7961644000606611	2	49	684896.5381	68.75	0.9693465000018477	2	0
279.30620568885934	0.7953829999314621	2	49	684897.186	87.5	0.8210817999206483	2	0
280.1015886887908	0.7996829999610782	2	49	684897.9082	100	0.7478337000356987	1	0
280.9012716887519	0.7997651000041515	2	49	684898.7971	87.5	0.8370882000308484	2	0
281.7010368	0.7987839000998065	2	49	684899.508	100	0.7482253999914974	1	0
282.49982068885583	0.7973990999162197	2	49	684900.2652	93.75	0.7066574998898432	1	0
283.29721978877205	0.7969110000412911	2	49	684901.1983	87.5	0.8423585999989882	2	0
284.09413078881335	0.7992067	2	49	684902.0713	81.25	0.9183734999969602	2	0
284.8933374887565	0.7960778000997379	2	49	684902.7132	100	0.7611131999874488	1	0
285.68941528885625	0.7993477999698371	2	49	684903.4062	87.5	0.6580241998890415	1	0
286.4887630888261	0.7965875000227243	2	49	684904.2903	100	0.7427498999750242	1	0
287.2853505888488	0.7951359	2	49	684905.0253	93.75	0.6811423999024555	1	0
288.0804864887614	0.7980972	2	49	684905.7753	87.5	0.6360136000439525	1	0
288.8785836887546	0.7953527000499889	1	0	0	0	0	0	0
289.6739363888046	0.7988387000514194	1	0	0	0	0	0	0
290.4727751	0.7954511999851093	2	49	684908.1646	87.5	0.6330220999661833	1	0
291.2682262888411	0.7959282000083476	2	49	684909.1174	93.75	0.7904363	2	0
292.06415448884945	0.7985425000078976	2	49	684909.9104	93.75	0.7875280999578536	2	0
292.86269698885735	0.7960971998982131	2	49	684910.8351	81.25	0.9135985999600962	2	0
293.65879418875556	0.7980448000598699	2	49	684911.6055	81.25	0.8879737000679597	2	0
294.45683898881543	0.7962387000443414	1	0	0	0	0	0	0
295.2530776888598	0.7972476999275386	2	49	684913.0547	100	0.7428336999146268	1	0
296.0503253887873	0.7987426000181586	2	49	684913.8516	100	0.7424910999834538	1	0
296.8490679888055	0.7969172999728471	2	49	684914.6227	93.75	0.7148977000033483	1	0
297.6459852887783	0.7991470000706613	2	49	684915.4347	100	0.7299449000274763	1	0
298.4451323	0.7969314999645576	2	49	684916.2677	100	0.7638284999411553	1	0
299.24206378881354	0.7953796000219882	2	49	684917.1919	81.25	0.8910437000449747	2	0
300.0374433888355	0.8002700000070035	2	49	684918.0688	68.75	0.9725519999628887	2	0
300.83771338884253	0.7962826999137178	2	49	684918.8238	75	0.9273141999728978	2	0
301.63399608875625	0.7985949000576511	2	49	684919.6208	75	0.9280385000165552	2	0
302.4325909888139	0.7979488000273705	2	49	684920.3058	93.75	0.8144789999350905	2	0
303.23053978884127	0.7955833	1	0	0	0	0	0	0
304.0261230887845	0.7984428000636399	2	49	684921.9911	81.25	0.9062171999830753	2	0
304.82456588884816	0.7965385999996215	2	49	684922.6001	93.75	0.7167821999173611	1	0
305.6211044888478	0.7974270000122488	2	49	684923.3779	93.75	0.6980082999216393	1	0
306.4185315	0.7966134999878705	2	49	684924.2959	87.5	0.8185879999073222	2	0
307.2151449888479	0.7957686999579892	2	49	684924.999	100	0.7250518999062479	1	0
308.0109136888059	0.8002041999716312	2	49	684925.837	100	0.7673554	1	0
308.8111178887775	0.7973572000628337	2	49	684926.689	87.5	0.8191463999683037	2	0
309.60847508884035	0.7974222999764606	2	49	684927.5472	81.25	0.8799434999236837	2	0
310.4058973888168	0.8622880999464542	2	49	684928.3919	87.5	0.9272614000365138	2	0
311.26818548876327	0.7973952000029385	2	49	684929.1631	87.5	0.8361091000260785	2	0
312.0655806887662	0.7986096000531688	2	49	684929.8913	100	0.7669741000281647	1	0
312.8641902888194	0.7970559	2	49	684930.7351	93.75	0.8121405	2	0
313.66124618879985	0.7977632000111043	2	49	684931.5771	87.5	0.8571452000178397	2	0
314.45900938881095	0.7978151999413967	2	49	684932.2643	100	0.7465026000281796	1	0
315.25682458875235	0.7957271001068875	2	49	684933.0032	93.75	0.6875846000621095	1	0
316.05255168885924	0.7990192999131978	2	49	684933.8596	100	0.7483369999099523	1	0
316.85157098877244	0.7967490999726579	2	49	684934.8004	81.25	0.8900700000813231	2	0
317.6483200887451	0.7970117001095787	2	49	684935.5335	87.5	0.8264004000229761	2	0
318.4453317888547	0.7954673999920487	2	49	684936.2105	93.75	0.706407	1	0
319.2407991888467	0.7964761	2	49	684937.0144	93.75	0.7148522000061348	1	0
320.0372752888361	0.7997057000175118	2	49	684937.9976	81.25	0.9015328999375924	2	0
320.8369809888536	0.7958076	1	0	0	0	0	0	0
321.63278858875856	0.7976501000812277	2	49	684939.3874	93.75	0.6958861000603065	1	0
322.4304386888398	0.7971222000196576	2	49	684940.4275	75	0.9382966000121087	2	0
323.22756088885944	0.7950261998921633	2	49	684941.1084	87.5	0.8221105999546126	2	0
324.0225870887516	0.7983785000396892	2	49	684941.8395	100	0.7581741000758484	1	0
324.8209655887913	0.7960709000471979	2	49	684942.6034	100	0.7237109000561759	1	0
325.6170364888385	0.7974180999444798	1	0	0	0	0	0	0
326.4144546	0.8000791	2	49	684943.8305	50	0.35727220005355775	1	0
327.21453368884977	0.7996047999477014	2	49	684944.7556	68.75	0.4822969000088051	1	0
328.01413848879747	0.7986474999925122	2	49	684945.8575	93.75	0.784646	2	0
328.812786	0.7976085999980569	2	49	684946.6174	100	0.7458962000673637	1	0
329.61039458878804	0.8009278000099584	2	49	684947.5188	87.5	0.8496146000688896	2	0
330.4113224	0.7994576999917626	2	49	684948.2802	93.75	0.8101176000200212	2	0
331.21078008878976	0.8016913	2	49	684949.1258	87.5	0.8562708	2	0
332.0124713887926	0.7994267	2	49	684949.9917	81.25	0.9205184000311419	2	0
332.81189808878116	0.7988716000691056	2	49	684950.6447	93.75	0.7740067000268027	2	0
333.61076968885027	0.7997445999644697	2	49	684951.5089	87.5	0.8393343999050558	2	0
334.41051428881474	0.7979870999697596	2	49	684952.308	87.5	0.8387713000411168	2	0
335.2085013887845	0.7991267000325024	1	49	684953.1171	87.5	0.8498506000032648	2	0
336.0076281	0.7987586000235751	2	49	684953.772	93.75	0.7055833999766037	1	0
336.8063866888406	0.7999760999809951	2	49	684954.6313	100	0.7661842999514192	1	0
337.60636278882157	0.8015209999866784	2	49	684955.4722	93.75	0.8070524999639019	2	0
338.40788378880825	0.7990600999910384	2	49	684956.1959	100	0.7292672999901697	1	0
339.2069438887993	0.8001109999604523	2	49	684957.0761	93.75	0.8104027999797836	2	0
340.00705488875974	0.8020208000671118	2	49	684957.9033	87.5	0.8374675000086427	2	0
340.80907568882685	0.7995766999665648	2	49	684958.7342	87.5	0.8663622	2	0
341.6086523887934	0.7994428999954835	2	49	684959.501	87.5	0.8335560000268742	2	0
342.4080952887889	0.8011463000439107	2	49	684960.4322	75	0.9653487000614405	2	0
343.2092415888328	0.8016253999667242	2	49	684961.3972	50	1.1291685999603942	2	0
344.01086698879953	0.8011181999463588	2	49	684962.0713	68.75	1.001687900046818	2	0
344.8119851887459	0.8002600000472739	2	49	684962.8172	75	0.9464286000002176	2	0
345.61224518879317	0.8005682000657544	2	49	684963.6115	75	0.9404494999907911	2	0
346.4128133888589	0.8000122999073938	2	49	684964.4234	75	0.9518391	2	0
347.2128256887663	0.7992590999929234	2	49	684965.1915	81.25	0.9198900000192225	2	0
348.01208478875924	0.7987358000827953	2	49	684966.0045	75	0.9336220000404865	2	0
348.81082058884203	0.8016299000009894	2	49	684966.6994	87.5	0.8297851999523118	2	0
349.6124505	0.8011291999137029	1	0	0	0	0	0	0
350.4135796887567	0.7998153000371531	2	49	684967.9849	68.75	0.5125922000734136	1	0
351.2133949887939	0.7999126	2	49	684969.0646	93.75	0.792401	2	0
352.0133076	0.7993972999975085	2	49	684969.8746	93.75	0.8025325000053272	2	0
352.8127048887545	0.8007133000064641	2	49	684970.7075	87.5	0.8360556000843644	2	0
353.6134182	0.7997123000677675	1	0	0	0	0	0	0
354.41313048882876	0.8004834000021219	2	49	684972.0546	81.25	0.5827336999354884	1	0
355.2136138888309	0.8008751999586821	2	49	684973.1164	87.5	0.8440653999568895	2	0
356.01448908878956	0.7990460000000894	2	49	684973.8934	93.75	0.8201070000650361	2	0
356.81353508878965	0.8014468000037596	2	49	684974.6221	100	0.7498294999822974	1	0
357.6149818887934	0.8021902999607846	2	49	684975.5807	81.25	0.9069699000101537	2	0
358.4171721887542	0.8028030000859872	2	49	684976.4496	75	0.9736999000888318	2	0
359.2199751888402	0.8026653999695554	2	49	684977.1757	81.25	0.8970021000131965	2	0
360.02264058880974	0.8009685999713838	2	49	684977.852	100	0.7706147000426427	1	0
360.8236091887811	0.8008953999960795	2	49	684978.6739	93.75	0.7915349999675527	2	0
361.6245045887772	0.7992225	2	49	684979.5096	87.5	0.8263623000821099	2	0
362.4237270888407	0.7998943999409676	2	49	684980.3439	87.5	0.8613928999984637	2	0
363.22362148878165	0.8003179000224918	1	0	0	0	0	0	0
364.02393938880414	0.7967957999790087	1	0	0	0	0	0	0
364.82073518878315	0.8007752	2	49	684982.6971	93.75	0.8176149000646546	2	0
365.6215103887953	0.8003258	2	49	684983.6433	75	0.9630353000247851	2	0
366.4218361887615	0.7983312000287697	2	49	684984.6	50	1.119455200037919	2	0
367.2201673887903	0.7996335	1	0	0	0	0	0	0
368.0198008888401	0.7998629999347031	2	49	684985.7841	93.75	0.7055729000130668	1	0
368.8196638887748	0.8020490000490099	2	49	684986.6459	100	0.7674621000187472	1	0
369.6217128888238	0.7996202999493107	2	49	684987.5961	81.25	0.9156280999304727	2	0
370.42133318877313	0.8008021999849007	2	49	684988.3311	87.5	0.8509788999799639	2	0
371.22213538875803	0.7993889000499621	2	49	684989.0601	93.75	0.7791844999883324	2	0
372.0215243	0.7991866000229493	2	49	684989.7631	93.75	0.6828508999897167	1	0
372.82071088883094	0.8010881999507546	2	49	684990.5051	87.5	0.6256171999266371	1	0
373.6217990887817	0.7992801000364125	2	49	684991.3252	87.5	0.6446149999974295	1	0
374.4210791888181	0.8002573000267148	2	49	684992.1344	87.5	0.6545793999684975	1	0
375.2213364888448	0.8018188999267295	2	49	684993.0261	100	0.7459930999903008	1	0
376.02315538877156	0.8022053	2	49	684994.0141	75	0.9321817000163719	2	0
376.82536068884656	0.7990086	2	49	684994.6631	93.75	0.7790211999090388	2	0
377.6243692887947	0.8002447000471875	2	49	684995.4051	93.75	0.7219886	1	0
378.4246139888419	0.7998144999146461	2	49	684996.2191	100	0.7357700999127701	1	0
379.22442848875653	0.7997664000140503	2	49	684996.9688	93.75	0.6855906000128016	1	0
380.0241948887706	0.8017208999954164	2	49	684997.734	87.5	0.6510338999796659	1	0
380.8259158	0.8003127999836579	2	49	684998.7075	87.5	0.8228220000164583	2	0
381.62622858874965	0.8004906000569463	2	49	684999.5543	87.5	0.8693311000242829	2	0
382.4267191888066	0.7997914	2	49	685000.3425	87.5	0.8570152999600396	2	0
383.2265105887782	0.8016948000295088	2	49	685001.0351	100	0.7498535000486299	1	0
384.0282053888077	0.7981460000155494	2	49	685001.7524	87.5	0.6654380999971181	1	0
384.82635138882324	0.8022781999316067	2	49	685002.5604	93.75	0.6753043	1	0
385.62862958875485	0.8015757000539452	2	49	685003.2995	81.25	0.6120870000449941	1	0
386.4302052888088	0.8013866000110283	2	49	685004.39	81.25	0.9010127999354154	2	0
387.2315918888198	0.8007440000073984	1	0	0	0	0	0	0
388.0323358888272	0.7984013999812305	2	49	685005.851	100	0.7598938000155613	1	0
388.83073728880845	0.8010218000272289	2	49	685006.6627	93.75	0.7731923999963328	2	0
389.6317590888357	0.8022550999885425	2	49	685007.5639	81.25	0.8733781999908388	2	0
390.4340141888242	0.8019203000003472	2	49	685008.4815	68.75	0.9887477000011131	2	0
391.23593448882457	0.8005527999484912	2	49	685009.2826	68.75	0.9879238000139594	2	0
392.03648728877306	0.8002763000549749	2	49	685009.9657	87.5	0.8704879999859259	2	0
392.83676358882803	0.8007057	2	49	685010.8786	68.75	0.9830862999660894	2	0
393.63746928877663	0.8006162000820041	2	49	685011.5808	81.25	0.8845631000585854	2	0
394.43808548885863	0.7977518999250606	1	0	0	0	0	0	0
395.2358373887837	0.8010304999770597	2	49	685012.9987	93.75	0.7040710999863222	1	0
396.03686788876075	0.7999377000378445	2	49	685013.9409	87.5	0.8452342000091448	2	0
396.8368055887986	0.8001211000373587	2	49	685014.6698	93.75	0.7742027000058442	2	0
397.63692668883596	0.8009142000228167	2	49	685015.6511	75	0.9553995999740437	2	0
398.4378408888588	0.8008924999739975	2	49	685016.3991	81.25	0.9024845999665558	2	0
399.23873338883277	0.7986059000249952	2	49	685017.11	93.75	0.8125141999917105	2	0
400.03733928885777	0.8012675999198109	2	49	685017.9069	93.75	0.8108376	2	0
400.8386068887776	0.8026101000141352	2	49	685018.6201	100	0.7227808000752702	1	0
401.6412169887917	0.8017096	2	49	685019.3488	87.5	0.6488421000540257	1	0
402.4429265888175	0.8002981999889016	2	49	685020.2244	100	0.7227174999425188	1	0
403.2432247888064	0.7991798999719322	2	49	685020.9821	93.75	0.6801040000282228	1	0
404.04240468877833	0.8010428000707179	2	49	685022.0457	75	0.9445533000398427	2	0
404.84344748884905	0.7973204998997971	2	49	685022.825	75	0.9228169999551028	2	0
405.64076798874885	0.7990558000747114	2	49	685023.4611	100	0.7615935000358149	1	0
406.43982378882356	0.7995871999301016	2	49	685024.2113	93.75	0.7126800999976695	1	0
407.23941098875366	0.7997528000269085	1	0	0	0	0	0	0
408.03916378878057	0.8017314000753686	2	49	685025.7452	87.5	0.6473205999936908	1	0
408.84089518885594	0.7968441999983042	2	49	685026.4671	75	0.5674931999528781	1	0
409.63773938885424	0.8014317998895422	1	49	685027.6502	75	0.9536565	2	0
410.4391711887438	0.8007681000744924	1	49	685028.3206	87.5	0.8226731000468135	2	0
411.2399392888183	0.8012157	1	0	0	0	0	0	0
412.04115498880856	0.8006065000081435	2	49	685030.0506	75	0.9506460999837145	2	0
412.8417614888167	0.8012345000170171	2	49	685030.6893	93.75	0.7887914000311866	2	0
413.6429959888337	0.7986725999508053	1	0	0	0	0	0	0
414.4416685887845	0.7988434999715537	2	49	685032.3854	81.25	0.8850155000109226	2	0
415.2405120887561	0.8001346	2	49	685032.9825	93.75	0.6832298000808805	1	0
416.0406466887798	0.8589602999854833	2	49	685033.9775	93.75	0.8781393000390381	2	0
416.8996069887653	0.7998468	2	49	685034.7403	93.75	0.7819328000769019	2	0
417.6994537888095	0.7997627999866381	2	49	685035.6405	81.25	0.8823054	2	0
418.4992165887961	0.7982395000290126	2	49	685036.5059	75	0.9479283000109717	2	0
419.29745608882513	0.8000944	1	0	0	0	0	0	0
420.0975504887756	0.8009666000725701	2	49	685037.8156	87.5	0.6592575000831857	1	0
420.89851708884817	0.8002855000086129	2	49	685038.8595	81.25	0.9022552999667823	2	0
421.6988025888568	0.8019411	2	49	685039.6107	87.5	0.8531878999201581	2	0
422.5007436887827	0.8021944	2	49	685040.2968	100	0.7373010000446811	1	0
423.3029380887747	0.7990499000297859	2	49	685041.1956	87.5	0.8338585	2	0
424.10198798880447	0.8021092000417411	2	49	685041.8806	93.75	0.7198422000510618	1	0
424.9040971888462	0.8022995999781415	1	0	0	0	0	0	0
425.70639678882435	0.8007855999749154	2	49	685043.7238	75	0.9586048999335617	2	0
426.50718238879927	0.7997588999569416	2	49	685044.1957	87.5	0.6297677999828011	1	0
427.3069412887562	0.8007448	2	49	685045.0081	87.5	0.6423614000668749	1	0
428.1076860887697	0.7994772000238299	2	49	685045.8556	93.75	0.6891770000802353	1	0
428.9071632887935	0.7997147999703884	2	49	685046.5637	81.25	0.5978128999704495	1	0
429.7068780887639	0.8010208000196144	1	49	685047.376	81.25	0.6103590000420809	1	0
430.50789888878353	0.8013056	2	49	685048.6156	62.5	1.0489320000633597	2	0
431.30920448875986	0.799089	2	49	685049.2969	75	0.9289060999872163	2	0
432.10829348885454	0.7969383999006823	2	49	685049.9804	93.75	0.8133081999840215	2	0
432.9052318887552	0.8016691000666469	2	49	685050.7024	100	0.7384096999885514	1	0
433.7069009888219	0.8006973000010476	2	49	685051.5681	93.75	0.8024403000017628	2	0
434.5075982888229	0.7986942999996245	2	49	685052.306	100	0.7396220000227913	1	0
435.30629258882254	0.8004474999615923	2	49	685053.1171	100	0.7520788999972865	1	0
436.10674008878414	0.8012530000414699	1	0	0	0	0	0	0
436.9079930888256	0.8017659999895841	2	49	685054.5999	87.5	0.6331749999662861	1	0
437.7097590888152	0.8006813999963924	2	49	685055.498	100	0.7295053	1	0
438.5104404888116	0.8009635999333113	1	0	0	0	0	0	0
439.3114040887449	0.8030768000753596	2	49	685057.0214	87.5	0.6512835000175983	1	0
440.11448088882025	0.8020902000134811	2	49	685058.0338	87.5	0.8605864000273868	2	0
440.91657108883373	0.8010139999678358	2	49	685058.9601	68.75	0.9847860999871045	2	0
441.71758508880157	0.7994793000398204	2	49	685059.7283	75	0.9519856000551954	2	0
442.5170643888414	0.8028348999796435	1	0	0	0	0	0	0
443.31989928882103	0.8008651	1	0	0	0	0	0	0
444.1207643888192	0.8009738000109792	2	49	685061.9122	100	0.7326860999455675	1	0
444.9217381888302	0.7986010999884456	2	49	685062.6804	93.75	0.6999194999225438	1	0
445.72033928881865	0.8000450000399724	2	49	685063.5953	93.75	0.8161607999354601	2	0
446.5203842888586	0.8012365999165922	2	49	685064.2493	87.5	0.6701759999850765	1	0
447.3216208887752	0.8009577000048012	2	49	685065.1665	93.75	0.7860803999938071	2	0
448.1225786	0.8017824999988079	2	49	685065.8635	93.75	0.6821330999955535	1	0
448.9243610887788	0.8003704000730067	2	49	685066.8511	87.5	0.8680099	2	0
449.72473148885183	0.8011225999798626	2	49	685067.5264	100	0.7429570999229327	1	0
450.5258540888317	0.7986307999817654	2	49	685068.3115	100	0.7268507999833673	1	0
451.32448488881346	0.8004921999527141	1	0	0	0	0	0	0
452.1249770887662	0.8016995000652969	1	0	0	0	0	0	0
452.92667658883147	0.7985046999529004	2	49	685070.8728	81.25	0.8874085999559611	2	0
453.72518128878437	0.8051139	1	0	0	0	0	0	0
454.53029518877156	0.7996664000675082	2	49	685072.2726	93.75	0.6835614000447094	1	0
455.32996158883907	0.80093	2	49	685073.2625	87.5	0.8737638000166044	2	0
456.13089158874936	0.7998717000009492	2	49	685073.8847	93.75	0.6950034000910819	1	0
456.9307632887503	0.8003815000411123	2	49	685074.8267	87.5	0.8372067000018433	2	0
457.7311447887914	0.8003371000522748	2	49	685075.6358	87.5	0.8459028	2	0
458.5314818888437	0.80014	2	49	685076.6567	62.5	1.0664434999926016	2	0
459.33162188879214	0.7991851000115275	2	49	685077.2809	81.25	0.8904985999688506	2	0
460.13080698880367	0.8014484000159428	1	0	0	0	0	0	0
460.9322553888196	0.7999229999259114	2	49	685078.7821	93.75	0.7910396000370383	2	0
461.7321783887455	0.8001581000862643	2	49	685079.5218	100	0.7309018	1	0
462.5323364888318	0.8049475000007078	2	49	685080.3669	93.75	0.7758254000218585	2	0
463.3372839888325	0.8003621000098065	2	49	685081.2192	87.5	0.8231290000258014	2	0
464.1376460888423	0.7988932	2	49	685082.0436	87.5	0.8471865	2	0
464.93653928884305	0.7991911999415606	2	49	685082.735	100	0.7397308999206871	1	0
465.7357304887846	0.8029103999724612	2	49	685083.6189	87.5	0.8243854000465944	2	0
466.5386408887571	0.8004949000896886	2	49	685084.464	87.5	0.8666436000494286	2	0
467.33913578884676	0.8011579999001697	2	49	685085.1344	100	0.7365051999222487	1	0
468.14029378874693	0.7997552000451833	1	0	0	0	0	0	0
468.9400489887921	0.8002765000564978	2	49	685087.0202	62.5	1.0213648000499234	2	0
469.7403254888486	0.8001739999745041	2	49	685087.567	100	0.7679028	1	0
470.5404994888231	0.7984647999983281	2	49	685088.1931	81.25	0.5938259999966249	1	0
471.33896428882144	0.7996780999237671	2	49	685089.1893	93.75	0.7915751999244094	2	0
472.1386423887452	0.8000342000741512	2	49	685089.9645	100	0.7671423000283539	1	0
472.93867658881936	0.7983838999643922	2	49	685090.8192	87.5	0.8218151000328362	2	0
473.73706048878375	0.8005829000612721	2	49	685091.7495	75	0.9537218000041321	2	0
474.5376434	0.8002555000130087	2	49	685092.4702	81.25	0.8738312999485061	2	0
475.33789888885804	0.8043320999713615	2	49	685093.2453	87.5	0.8486833999631926	2	0
476.1422309888294	0.8007041999371722	2	49	685094.1817	68.75	0.9806899	2	0
476.94293518876657	0.8007299000164494	2	49	685094.7693	100	0.7676304000196978	1	0
477.7436651	0.8009612000314519	2	49	685095.5063	93.75	0.703925	1	0
478.54462628881447	0.8008565999334678	2	49	685096.3264	100	0.7229689999949187	1	0
479.34548288874794	0.7988294	2	49	685097.3892	68.75	0.9849723000079393	2	0
480.14431228884496	0.8011785999406129	2	49	685098.1073	81.25	0.9042697999393567	2	0
480.94549088878557	0.8015259000239894	2	49	685098.7324	100	0.7281468000728637	1	0
481.74701678880956	0.8011589	2	49	685099.746	75	0.9401907999999821	2	0
482.5481757	0.8013301999308169	2	49	685100.3925	93.75	0.7856081000063568	2	0
483.3495058887638	0.8009398	2	49	685101.1365	100	0.7282586999936029	1	0
484.15044568874873	0.8006057000020519	2	49	685101.9898	93.75	0.7805489000165835	2	0
484.9510513887508	0.7997937001055107	2	49	685102.7897	93.75	0.7798605000134557	2	0
485.7508450888563	0.8019473999738693	2	49	685103.6167	93.75	0.8070622999221087	2	0
486.55279248883016	0.7992921000113711	2	49	685104.5521	75	0.9405041999416426	2	0
487.35208458884154	0.8008164999773726	2	49	685105.2238	93.75	0.8129897000035271	2	0
488.1529010888189	0.8010397999314591	2	49	685106.1749	75	0.9632838999386877	2	0
488.95394088875037	0.7993759	2	49	685107.0357	62.5	1.0229728	2	0
489.75331678881776	0.7994411999825388	2	49	685107.671	87.5	0.8588777999393642	2	0
490.5527579888003	0.7974763000383973	2	49	685108.4246	93.75	0.8130592999514192	2	0
491.3502342888387	0.7999454999808222	2	49	685109.2418	87.5	0.8328460999764502	2	0
492.1501797888195	0.7989727000240237	2	49	685110.0378	87.5	0.8288676	2	0
492.94915248884354	0.8000881999032572	2	49	685110.7988	93.75	0.7908625999698415	2	0
493.7492406887468	0.7985707	2	49	685111.6271	87.5	0.8191055000061169	2	0
494.5478114	0.8015178999630734	2	49	685112.6088	68.75	1.0021991999819875	2	0
495.3493292888161	0.8006150999572128	2	49	685113.2279	93.75	0.8198532999958843	2	0
496.1499443887733	0.8006828000070527	2	49	685113.9928	93.75	0.7840921999886632	2	0
496.95062718878035	0.8000454000430182	2	49	685114.7622	100	0.7528172000311315	1	0
497.75067258882336	0.8006297999527305	2	49	685115.5239	93.75	0.7144458999391645	1	0
498.5513023887761	0.8030450000660494	2	49	685116.3114	93.75	0.7013673	1	0
499.35434738884214	n/a	0	0	0	0	0	0	0