onset	duration	cue	constant1	timestamp	stimulus_coherence	response_time	response	constant2
20.41396184	0.8115269998088479	2	49	2151351.274	68.75	1.0197773999534547	2	0
21.225488836877048	0.8001144998706877	2	49	2151351.939	81.25	0.8731157002039254	2	0
22.025603336747736	0.8006794000975788	1	0	0	0	0	0	0
22.826282736845315	0.8010313999839127	1	0	0	0	0	0	0
23.627314136829227	0.8011628002859652	2	49	2151354.442	68.75	0.9742586999200284	2	0
24.428476937115192	0.7974821999669075	1	0	0	0	0	0	0
25.22595914	0.7971278997138143	1	0	0	0	0	0	0
26.023087036795914	0.8063866999000311	2	49	2151356.687	93.75	0.8236743002198637	2	0
26.829473736695945	0.8013378	2	49	2151357.563	81.25	0.8934468002989888	2	0
27.630811536684632	0.7963729002512991	2	49	2151358.276	93.75	0.8048430001363158	2	0
28.42718443693593	0.7956523997709155	2	49	2151359.099	87.5	0.8315678001381457	2	0
29.222836836706847	0.7962850001640618	2	49	2151359.81	100	0.7468481003306806	1	0
30.01912183687091	0.7947217999026179	2	49	2151360.758	81.25	0.8986567999236286	2	0
30.813843636773527	0.7954604001715779	2	49	2151361.485	87.5	0.8309323000721633	2	0
31.609304036945105	0.7956944997422397	2	49	2151362.158	93.75	0.7081296998076141	1	0
32.404998536687344	0.7947125001810491	2	49	2151363.03	93.75	0.7848513000644743	2	0
33.19971103686839	0.7943279	2	49	2151363.89	87.5	0.8501737001352012	2	0
33.994038936682045	0.7954277000389993	2	49	2151364.615	93.75	0.7807935001328588	2	0
34.789466636721045	0.7957844003103673	1	0	0	0	0	0	0
35.58525103703141	0.7959210998378694	2	49	2151366.3	81.25	0.8746643997728825	2	0
36.38117213686928	0.7954167001880705	2	49	2151367.104	81.25	0.8827593000605702	2	0
37.17658883705735	0.7963686999864876	2	49	2151367.9	81.25	0.8833293998613954	2	0
37.97295753704384	0.7998386998660862	2	49	2151368.861	62.5	1.0475459997542202	2	0
38.772796236909926	0.8000805000774562	2	49	2151369.598	68.75	0.9852419998496771	2	0
39.57287673698738	0.8001155001111329	2	49	2151370.317	81.25	0.9040735997259617	2	0
40.372992237098515	0.7965788999572396	2	49	2151371.061	87.5	0.8482530997134745	2	0
41.169571137055755	0.7972577000036836	2	49	2151371.889	81.25	0.8794694999232888	2	0
41.96682883705944	0.7960504996590316	2	49	2151372.589	93.75	0.7822185000404716	2	0
42.76287933671847	0.7947528003714979	2	49	2151373.462	87.5	0.8593136	2	0
43.55763213708997	0.7983179995790124	2	49	2151374.355	75	0.9568240996450186	2	0
44.35595013666898	0.7987061003223062	2	49	2151375.1	81.25	0.9036624003201723	2	0
45.154656236991286	0.7958692996762693	2	49	2151375.825	87.5	0.8305854997597635	2	0
45.950525536667556	0.7984978002496064	1	0	0	0	0	0	0
46.74902333691716	0.7947909999638796	2	49	2151377.468	81.25	0.8783432999625802	2	0
47.54381433688104	0.7983899000100791	2	49	2151378.335	75	0.9514750000089407	2	0
48.34220423689112	0.8054680000059307	2	49	2151379.272	56.25	1.0900929002091289	2	0
49.14767223689705	0.7950336001813412	2	49	2151379.779	93.75	0.7907120999880135	2	0
49.94270583707839	0.7977745998650789	2	49	2151380.547	100	0.7636355	1	0
50.74048043694347	0.8057262999936938	2	49	2151381.286	93.75	0.7051586997695267	1	0
51.546206736937165	0.7948250998742878	1	0	0	0	0	0	0
52.34103183681145	0.7970071001909673	2	49	2151383.062	81.25	0.8803938999772072	2	0
53.13803893700242	0.7951040999032557	2	49	2151383.842	87.5	0.8633393999189138	2	0
53.933143036905676	0.8084653001278639	2	49	2151384.927	50	1.1532950000837445	2	0
54.74160833703354	0.8030630997382104	2	49	2151385.569	68.75	0.9869168996810913	2	0
55.54467143677175	0.7982401000335813	2	49	2151386.322	75	0.9367676000110805	2	0
56.34291153680533	0.8007877999916673	2	49	2151386.997	93.75	0.8138454002328217	2	0
57.14369934	0.798635	2	49	2151387.769	93.75	0.7848510001786053	2	0
57.94233433669433	0.8041903004050255	1	0	0	0	0	0	0
58.746524637099355	0.7956708995625377	2	49	2151389.352	100	0.7650504997000098	1	0
59.54219553666189	0.7955394	2	49	2151390.131	100	0.7486533001065254	1	0
60.337734936736524	0.7945905001834035	2	49	2151391.071	81.25	0.8932477002963424	2	0
61.13232543691993	0.8014782997779548	2	49	2151391.942	75	0.9693616000004113	2	0
61.93380373669788	0.7954693003557622	2	49	2151392.641	87.5	0.8670626999810338	2	0
62.729273037053645	0.7951972000300884	2	49	2151393.438	87.5	0.8682816997170448	2	0
63.52447023708373	0.7965148999355733	2	49	2151394.198	87.5	0.8331859	2	0
64.32098514	0.8145336	2	49	2151394.849	87.5	0.6879897997714579	1	0
65.13551873667166	0.7979918	2	49	2151395.714	100	0.7382599003612995	1	0
65.93351053679362	0.7951581999659538	2	49	2151396.47	93.75	0.6965564000420272	1	0
66.72866873675957	0.7987434002570808	2	49	2151397.39	93.75	0.8211097000166774	2	0
67.52741213701665	0.7958561996929348	2	49	2151398.089	100	0.7214359999634326	1	0
68.32326833670959	0.8001993000507355	2	49	2151398.791	81.25	0.6270999000407755	1	0
69.12346763676032	0.7965962002053857	2	49	2151399.597	87.5	0.6328483000397682	1	0
69.92006383696571	0.7977164001204073	2	49	2151400.427	93.75	0.6667935997247696	1	0
70.71778023708612	0.8159083998762071	2	49	2151401.22	87.5	0.6618539998307824	1	0
71.53368863696232	0.7956373	2	49	2151402.122	100	0.7483454998582602	1	0
72.32932593673468	0.8003487000241876	1	0	0	0	0	0	0
73.12967463675886	0.7947130999527872	2	49	2151403.65	93.75	0.6802583001554012	1	0
73.92438773671165	0.8126003001816571	2	49	2151404.511	100	0.7461651000194252	1	0
74.73698803689331	0.7984798001125455	2	49	2151405.423	87.5	0.8453994998708367	2	0
75.53546783700585	0.7988406997174025	2	49	2151406.289	81.25	0.913661	2	0
76.33430853672326	0.7955161002464592	2	49	2151407.106	75	0.9317156001925468	2	0
77.12982463696972	0.8043760000728071	2	49	2151407.877	81.25	0.9071971	2	0
77.93420063704252	0.8000163999386132	2	49	2151408.875	56.25	1.100248099770397	2	0
78.73421703698114	0.7959896000102162	2	49	2151409.342	93.75	0.7680819998495281	2	0
79.53020663699135	0.7971347998827696	2	49	2151410.216	87.5	0.8459640997461975	2	0
80.32734143687412	0.7966620000079274	2	49	2151410.974	93.75	0.8065801002085209	2	0
81.12400343688205	0.7952720997855067	2	49	2151411.744	93.75	0.7802535998634994	2	0
81.91927553666756	0.7956666	2	49	2151412.491	100	0.7311819000169635	1	0
82.71494213677943	0.7943218001164496	2	49	2151413.277	100	0.7215191000141203	1	0
83.50926393689588	0.8034923998638988	2	49	2151414.052	93.75	0.7020784001797438	1	0
84.31275633675978	0.7991607999429107	1	49	2151414.8	87.5	0.6466630003415048	1	0
85.11191713670269	0.7953747003339231	2	49	2151415.596	87.5	0.6443231999874115	1	0
85.90729183703661	0.7975232000462711	2	49	2151416.525	93.75	0.7779624997638166	2	0
86.70481503708288	0.7963262000121176	2	49	2151417.441	81.25	0.8957234998233616	2	0
87.50114124	0.8074138998053968	2	49	2151418.231	81.25	0.8893610998056829	2	0
88.30855514	0.7950190999545157	2	49	2151418.991	87.5	0.8423154000192881	2	0
89.10357423685491	0.8000594000332057	1	0	0	0	0	0	0
89.90363363688812	0.8073644	2	49	2151420.552	93.75	0.8077813000418246	2	0
90.71099803689867	0.8029430001042783	2	49	2151421.417	87.5	0.8659339998848736	2	0
91.51394103700295	0.7997145997360349	2	49	2151422.186	87.5	0.8318449999205768	2	0
92.31365563673899	0.8002125001512468	2	49	2151423.024	87.5	0.8699298002757132	2	0
93.11386813689023	0.8040359998121858	1	0	0	0	0	0	0
93.91790413670242	0.7960489001125097	2	49	2151424.604	87.5	0.8456707000732422	2	0
94.71395303681493	0.7957870000973344	1	49	2151425.344	93.75	0.7895789002068341	2	0
95.50974003691226	0.7979600997641683	2	49	2151425.931	81.25	0.5809189002029598	1	0
96.30770013667643	0.7995984	2	49	2151426.81	87.5	0.6619832003489137	1	0
97.10729853669181	0.7964539001695812	2	49	2151427.662	93.75	0.7142555001191795	1	0
97.90375244	0.7986277998425066	2	49	2151428.558	93.75	0.8139928001910448	2	0
98.70238024	0.8017346002161503	2	49	2151429.267	93.75	0.7244314001873136	1	0
99.50411483692005	0.8026743000373244	2	49	2151430.19	87.5	0.8458581999875605	2	0
100.30678913695738	0.7983367997221649	2	49	2151430.841	93.75	0.6942014000378549	1	0
101.10512593667954	0.7966715004295111	1	0	0	0	0	0	0
101.90179743710905	0.7956655	2	49	2151432.79	62.5	1.0480114999227226	2	0
102.6974629368633	0.8126823	2	49	2151433.364	93.75	0.8265129001811147	2	0
103.51014523673803	0.7951797000132501	2	49	2151434.139	93.75	0.7886827001348138	2	0
104.30532493675128	0.7962625999934971	1	0	0	0	0	0	0
105.10158753674477	0.7975551001727581	2	49	2151435.515	75	0.5737137	1	0
105.89914263691753	0.8033822998404503	2	49	2151436.676	75	0.9368321998044848	2	0
106.70252493675798	0.7984166000969708	2	49	2151437.463	81.25	0.9204563000239432	2	0
107.50094153685495	0.7984517002478242	2	49	2151438.429	56.25	1.088226499967277	2	0
108.29939323710278	0.8004791997373104	2	49	2151439.065	75	0.9252408999018371	2	0
109.09987243684009	0.807568	1	0	0	0	0	0	0
109.90744043700397	0.8126908000558615	2	49	2151440.489	100	0.7415868998505175	1	0
110.72013123705983	0.7988339997828007	2	49	2151441.41	87.5	0.8500524996779859	2	0
111.51896523684263	0.8007971001788974	2	49	2151442.259	81.25	0.8993664002045989	2	0
112.31976233702153	0.7995549999177456	2	49	2151443.042	81.25	0.8822865998372436	2	0
113.11931733693928	0.8039027000777423	2	49	2151443.779	93.75	0.8199120000936091	2	0
113.92322003701702	0.7948407996445894	2	49	2151444.67	81.25	0.9070526999421418	2	0
114.7180608366616	0.7943717003799975	2	49	2151445.444	81.25	0.8860758002847433	2	0
115.5124325370416	0.7952152	2	49	2151446.104	100	0.7518214	1	0
116.30764773674309	0.7949632001109421	2	49	2151446.785	87.5	0.6367498002946377	1	0
117.10261093685403	0.8000080999918282	2	49	2151447.494	75	0.5508500002324581	1	0
117.90261903684586	0.7951258001849055	2	49	2151448.511	93.75	0.7679861998185515	2	0
118.69774483703077	0.7974167997017503	2	49	2151449.481	75	0.9434499000199139	2	0
119.49516163673252	0.8057238003239036	2	49	2151450.122	93.75	0.7870734	2	0
120.30088543705642	0.8000395996496081	2	49	2151450.911	100	0.7696249997243285	1	0
121.10092503670603	0.7943269000388682	2	49	2151451.798	87.5	0.8568788999691606	2	0
121.8952519367449	0.7951858001761138	2	49	2151452.566	87.5	0.8300930000841618	2	0
122.69043773692101	0.794143	2	49	2151453.422	81.25	0.8910439000464976	2	0
123.48458073707297	0.8012761999852955	2	49	2151454.229	81.25	0.9038890996016562	2	0
124.28585693705827	0.7955270996317267	2	49	2151454.957	93.75	0.8306376999244094	2	0
125.081384	0.8023525001481175	2	49	2151455.789	87.5	0.8671202003024518	2	0
125.88373653683811	0.8034030999988317	2	49	2151456.528	93.75	0.8040241999551654	2	0
126.68713963683695	0.7959666000679135	2	49	2151457.251	93.75	0.7235638001002371	1	0
127.48310623690486	0.7998368	2	49	2151458.251	81.25	0.9273644001223147	2	0
128.2829430368729	0.7982939998619258	2	49	2151458.985	87.5	0.8618608000688255	2	0
129.08123703673482	0.8073466001078486	2	49	2151459.827	81.25	0.9052637000568211	2	0
129.88858363684267	0.7983770999126136	2	49	2151460.609	81.25	0.8801317000761628	2	0
130.68696073675528	0.7956882999278605	2	49	2151461.3	100	0.7728539002127945	1	0
131.48264903668314	0.7943896003998816	2	49	2151462.072	100	0.7491921000182629	1	0
132.27703863708302	0.8086279	2	49	2151462.871	100	0.7538785999640822	1	0
133.0856665368192	0.7946585002355278	2	49	2151463.769	87.5	0.8429956999607384	2	0
133.88032503705472	0.7961498997174203	2	49	2151464.424	93.75	0.7036632997915149	1	0
134.67647493677214	0.7993018003180623	2	49	2151465.294	93.75	0.7772329	2	0
135.4757767370902	0.7991379997693002	2	49	2151466.158	87.5	0.8422201997600496	2	0
136.2749147368595	0.7967381002381444	2	49	2151466.997	81.25	0.8823724999092519	2	0
137.07165283709764	0.8009620998054743	2	49	2151467.766	87.5	0.8541810996830463	2	0
137.87261493690312	0.7950797998346388	2	49	2151468.596	81.25	0.8832621001638472	2	0
138.66769473673776	0.8106088	1	0	0	0	0	0	0
139.47830353677273	0.8139901999384165	2	49	2151469.997	87.5	0.6787996999919415	1	0
140.29229373671114	0.8011579001322389	2	49	2151470.856	93.75	0.7237178003415465	1	0
141.09345163684338	0.7955036000348628	2	49	2151471.742	93.75	0.8079142002388835	2	0
141.88895523687825	0.7976994998753071	2	49	2151472.475	100	0.7463355	1	0
142.68665473675355	0.8029478001408279	2	49	2151473.074	75	0.5472794002853334	1	0
143.48960253689438	0.7939784000627697	2	49	2151473.918	81.25	0.5884858998470008	1	0
144.28358093695715	0.7977737998589873	2	49	2151474.685	75	0.5614008000120521	1	0
145.08135473681614	0.7967413002625108	2	49	2151475.541	81.25	0.6193101000972092	1	0
145.87809603707865	0.7981304000131786	2	49	2151476.28	75	0.5615742998197675	1	0
146.67622643709183	0.7984990999102592	2	49	2151477.286	100	0.7696006000041962	1	0
147.4747255370021	0.7996403998695314	2	49	2151478.065	100	0.7496911999769509	1	0
148.27436593687162	0.7956636999733746	1	49	2151478.977	87.5	0.8626092001795769	2	0
149.0700296	0.7950257998891175	2	49	2151479.732	93.75	0.8222114001400769	2	0
149.8650554367341	0.795208	1	49	2151480.493	93.75	0.7881366000510752	2	0
150.66026343684644	0.7964130998589098	2	49	2151481.26	100	0.7596885999664664	1	0
151.45667653670534	0.7981499000452459	2	49	2151482.144	87.5	0.8468550001271069	2	0
152.2548264367506	0.8018068000674248	2	49	2151482.853	100	0.7575982003472745	1	0
153.05663323681802	0.7987140999175608	2	49	2151483.685	93.75	0.7886006999760866	2	0
153.85534733673558	0.7950031002983451	2	49	2151484.639	75	0.9430210003629327	2	0
154.65035043703392	0.8010489	1	0	0	0	0	0	0
155.45139933703467	0.8005450996570289	2	49	2151486.119	93.75	0.8270806	2	0
156.2519444366917	0.8005975000560284	2	49	2151486.971	81.25	0.87846	2	0
157.05254193674773	0.7953667999245226	2	49	2151487.814	75	0.9212895003147423	2	0
157.84790873667225	0.8132203002460301	2	49	2151488.421	93.75	0.7325572003610432	1	0
158.66112903691828	0.7984011000953615	2	49	2151489.16	87.5	0.6584712998010218	1	0
159.45953013701364	0.7954150997102261	2	49	2151490.068	100	0.7680544997565448	1	0
160.25494523672387	0.8004724001511931	2	49	2151490.903	93.75	0.807813	2	0
161.05541763687506	0.7951005999930203	2	49	2151491.695	93.75	0.7992949998006225	2	0
161.85051823686808	0.7987592997960746	2	49	2151492.551	87.5	0.8602823000401258	2	0
162.64927753666416	0.7944073001854122	2	49	2151493.311	93.75	0.8216784000396729	2	0
163.44368483684957	0.7990947999060154	1	49	2151493.998	93.75	0.7143443999812007	1	0
164.24277963675559	0.8014723001979291	2	49	2151494.753	87.5	0.6697380002588034	1	0
165.04425193695351	0.8041500998660922	2	49	2151495.618	100	0.7333422000519931	1	0
165.8484020368196	0.7953053000383079	2	49	2151496.449	100	0.7601612000726163	1	0
166.64370733685791	0.8001031000167131	2	49	2151497.346	87.5	0.8624653001315892	2	0
167.44381043687463	0.7947824001312256	2	49	2151498.186	81.25	0.9019718999043107	2	0
168.23859283700585	0.8046550997532904	2	49	2151498.891	93.75	0.8124373997561634	2	0
169.04324793675914	0.7978827003389597	2	49	2151499.711	87.5	0.8277600998990238	2	0
169.8411306370981	0.7953703999519348	2	49	2151500.512	87.5	0.8309510997496545	2	0
170.63650103705004	0.8186079999431968	2	49	2151501.276	93.75	0.7992443996481597	2	0
171.45510903699324	0.7952463999390602	2	49	2151502.062	100	0.766863	1	0
172.2503554369323	0.7979240999557078	2	49	2151502.896	93.75	0.8049702998250723	2	0
173.0482795	0.7986627002246678	2	49	2151503.735	87.5	0.8467119000852108	2	0
173.84694223711267	0.7992602996528149	2	49	2151504.468	93.75	0.7809588997624815	2	0
174.6462025367655	0.7987275999039412	2	49	2151505.267	93.75	0.7806909000501037	2	0
175.44493013666943	0.7988686002790928	2	49	2151506.012	93.75	0.7271195002831519	1	0
176.24379873694852	0.7987338998354971	2	49	2151506.824	100	0.7401515	1	0
177.04253263678402	0.7982067000120878	2	49	2151507.814	75	0.9312812001444399	2	0
177.8407393367961	0.8002651003189385	2	49	2151508.593	81.25	0.9117908	2	0
178.64100443711504	0.8036447996273637	2	49	2151509.339	87.5	0.8582452996633947	2	0
179.4446492367424	0.7979578003287315	2	49	2151510.196	81.25	0.9114656001329422	2	0
180.24260703707114	0.8045873995870352	1	0	0	0	0	0	0
181.04719443665817	0.7959930002689362	1	0	0	0	0	0	0
181.8431874369271	0.8019038997590542	2	49	2151512.599	81.25	0.9158443999476731	2	0
182.64509133668616	0.7991022001951933	2	49	2151513.365	81.25	0.8799854000099003	2	0
183.44419353688136	0.8130605998449028	2	49	2151514.147	87.5	0.8630102998577058	2	0
184.25725413672626	0.7958492999896407	2	49	2151515.046	75	0.9488146002404392	2	0
185.0531034367159	0.8012817003764212	2	49	2151515.78	81.25	0.8871677001006901	2	0
185.85438513709232	0.7976163998246193	2	49	2151516.601	81.25	0.9059891998767853	2	0
186.65200153691694	0.8050398	2	49	2151517.587	56.25	1.0947414999827743	2	0
187.45704133668914	0.7987881	2	49	2151518.192	81.25	0.8946528001688421	2	0
188.25582943670452	0.7976138000376523	2	49	2151518.944	87.5	0.8483951999805868	2	0
189.05344323674217	0.7957586999982595	2	49	2151519.652	100	0.7578785000368953	1	0
189.84920193674043	0.8018157002516091	2	49	2151520.421	100	0.7312276000156999	1	0
190.65101763699204	0.7950828997418284	2	49	2151521.183	93.75	0.6913691000081599	1	0
191.44610053673387	0.7983814002946019	1	49	2151521.925	87.5	0.6385123003274202	1	0
192.24448193702847	0.7985956999473274	2	49	2151523.019	75	0.9343367996625602	2	0
193.0430776369758	0.8029118999838829	2	49	2151523.84	75	0.9564380999654531	2	0
193.84598953695968	0.7989972997456789	1	0	0	0	0	0	0
194.64498683670536	0.7953514000400901	2	49	2151525.431	75	0.9455802	2	0
195.44033823674545	0.7959457002580166	2	49	2151526.07	93.75	0.7892245003022254	2	0
196.23628393700346	0.7992535997182131	2	49	2151526.905	87.5	0.8281164998188615	2	0
197.03553753672168	0.8095656000077724	2	49	2151527.88	68.75	1.0039210002869368	2	0
197.84510313672945	0.7949063000269234	2	49	2151528.631	75	0.9455928	2	0
198.64000943675637	0.7956974003463984	2	49	2151529.494	68.75	1.0138155999593437	2	0
199.43570683710277	0.7961025	2	49	2151530.28	68.75	1.0040160999633372	2	0
200.2318093366921	0.7985506001859903	2	49	2151531.099	62.5	1.0269049000926316	2	0
201.03035993687809	0.7960672001354396	2	49	2151531.69	93.75	0.8194156000390649	2	0
201.82642713701352	0.7961039999499917	2	49	2151532.605	75	0.9382417998276651	2	0
202.62253113696352	0.7957506999373436	2	49	2151533.276	93.75	0.8134721997193992	2	0
203.41828183690086	0.7954059997573495	2	49	2151534.026	100	0.7672068998217583	1	0
204.2136878366582	0.7976127001456916	2	49	2151535.038	68.75	0.9838649001903832	2	0
205.0113005368039	0.7960679000243545	2	49	2151535.917	62.5	1.065690000075847	2	0
205.80736843682826	0.8010088000446558	2	49	2151536.606	75	0.9585509	2	0
206.6083772368729	0.7951543000526726	2	49	2151537.243	93.75	0.7942734998650849	2	0
207.40353153692558	0.8003047001548111	2	49	2151538.036	93.75	0.7926444998010993	2	0
208.2038362370804	0.7983248997479677	2	49	2151538.807	100	0.7631071000359952	1	0
209.00216113682836	0.7994333999231458	2	49	2151539.587	100	0.7450445001013577	1	0
209.8015945367515	0.8130618003197014	2	49	2151540.33	87.5	0.6884363000281155	1	0
210.6146563370712	0.7984602996148169	2	49	2151541.086	87.5	0.6314608999527991	1	0
211.41311663668603	0.7959955004043877	2	49	2151541.908	87.5	0.6542206001468003	1	0
212.20911213709041	0.7953630997799337	2	49	2151542.702	87.5	0.6528457999229431	1	0
213.00447523687035	0.7960558999329805	2	49	2151543.706	87.5	0.8615032001398504	2	0
213.80053113680333	0.7958931000903249	2	49	2151544.577	75	0.9362828000448644	2	0
214.59642423689365	0.7949851001612842	2	49	2151545.378	75	0.9417038	2	0
215.39140933705494	0.8010721	1	0	0	0	0	0	0
216.19248143676668	0.7975576003082097	2	49	2151546.805	100	0.7726596002466977	1	0
216.9900390370749	0.7974286000244319	2	49	2151547.691	87.5	0.8602744997479022	2	0
217.78746763709933	0.8016690998338163	1	0	0	0	0	0	0
218.58913673693314	0.7977907001040876	2	49	2151549.359	75	0.9294854998588562	2	0
219.38692743703723	0.7979702	2	49	2151550.138	81.25	0.9113651998341084	2	0
220.18489763699472	0.7979902997612953	2	49	2151550.884	87.5	0.8586582997813821	2	0
220.98288793675601	0.7977563999593258	2	49	2151551.642	93.75	0.8186882003210485	2	0
221.78064433671534	0.7976103001274168	2	49	2151552.441	87.5	0.8206604002043605	2	0
222.57825463684276	0.7953496002592146	2	49	2151553.356	75	0.9379388000816107	2	0
223.37360423710197	0.7946872999891639	2	49	2151554.211	68.75	0.9967968999408185	2	0
224.16829153709114	0.7997062997892499	2	49	2151554.91	81.25	0.9012275999411941	2	0
224.9679978368804	0.7940325997769833	2	49	2151555.544	100	0.7354945000261068	1	0
225.76203043665737	0.7944786003790796	2	49	2151556.294	93.75	0.6919820001348853	1	0
226.55650903703645	0.8028752999380231	2	49	2151557.191	93.75	0.7944927997887135	2	0
227.35938433697447	0.7983955997042358	2	49	2151557.944	100	0.7444473998621106	1	0
228.1577799366787	0.7956195003353059	2	49	2151558.749	100	0.7508864002302289	1	0
228.9533994	0.8087770999409258	2	49	2151559.743	75	0.9491858999244869	2	0
229.76217653695494	0.7978483000770211	1	0	0	0	0	0	0
230.56002483703196	0.7973417998291552	2	49	2151561.338	75	0.9376876996830106	2	0
231.35736663686112	0.7985021998174489	2	49	2151562.124	75	0.9269134001806378	2	0
232.15586883667856	0.8020170000381768	2	49	2151562.896	81.25	0.9002361004240811	2	0
232.95788583671674	0.8021262004040182	2	49	2151563.606	93.75	0.8078943002037704	2	0
233.76001203712076	0.7982572996988893	2	49	2151564.305	93.75	0.7049750997684896	1	0
234.55826933681965	0.7962425998412073	2	49	2151565.21	93.75	0.8115643998607993	2	0
235.35451193666086	0.7978246002458036	2	49	2151565.955	100	0.7607550001703203	1	0
236.15233653690666	0.7985128001309931	1	49	2151566.783	93.75	0.7906097997911274	2	0
236.95084933703765	0.8047970999032259	2	49	2151567.392	81.25	0.6010256996378303	1	0
237.75564643694088	0.7952425	1	0	0	0	0	0	0
238.55088893696666	0.8023703997023404	2	49	2151569.006	81.25	0.6146849	1	0
239.3532593	0.7992701004259288	2	49	2151569.958	100	0.7646375000476837	1	0
240.15252943709493	0.7976756999269128	2	49	2151570.852	87.5	0.8590710996650159	2	0
240.95020513702184	0.7953093997202814	2	49	2151571.598	93.75	0.8079304997809231	2	0
241.74551453674212	0.7984274001792073	2	49	2151572.391	93.75	0.8054944002069533	2	0
242.54394193692133	0.7988153998740017	2	49	2151573.267	81.25	0.8828528001904488	2	0
243.34275733679533	0.7938703000545502	2	49	2151573.959	93.75	0.7760756001807749	2	0
244.13662763684988	0.7981286998838186	2	49	2151574.787	93.75	0.8097211001440883	2	0
244.9347563367337	0.7993773999623954	2	49	2151575.714	75	0.9392163003794849	2	0
245.7341337366961	0.7951042000204325	1	0	0	0	0	0	0
246.52923793671653	0.7965207	2	49	2151577.257	81.25	0.8876954	2	0
247.3257586369291	0.8036675998009741	2	49	2151577.971	93.75	0.8052245997823775	2	0
248.12942623673007	0.7984768999740481	2	49	2151578.951	68.75	0.9816463002935052	2	0
248.92790313670412	0.7984729004092515	2	49	2151579.695	81.25	0.9273260002955794	2	0
249.72637603711337	0.7993265995755792	2	49	2151580.616	62.5	1.0498600997962058	2	0
250.52570263668895	0.7990417000837624	2	49	2151581.199	87.5	0.8334837001748383	2	0
251.3247443367727	0.8008817001245916	2	49	2151581.847	93.75	0.6824147999286652	1	0
252.1256260368973	0.8039175001904368	1	49	2151582.575	81.25	0.6087487	1	0
252.92954353708774	0.7957909000106156	2	49	2151583.531	100	0.7615626999177039	1	0
253.72533443709835	0.8029407998546958	2	49	2151584.369	93.75	0.8031146000139415	2	0
254.52827523695305	0.7970026000402868	2	49	2151585.127	100	0.7585267000831664	1	0
255.32527783699334	0.7957713999785483	2	49	2151585.978	93.75	0.812129	2	0
256.1210492369719	0.7978807999752462	2	49	2151586.911	75	0.9493811000138521	2	0
256.91893003694713	0.8016445999965072	2	49	2151587.531	100	0.7716004997491837	1	0
257.72057463694364	0.7979768998920918	2	49	2151588.311	100	0.7499563000164926	1	0
258.51855153683573	0.7939630001783371	2	49	2151589.097	100	0.73871	1	0
259.31251453701407	0.7976955999620259	2	49	2151590.126	75	0.9729597996920347	2	0
260.1102101369761	0.7980414000339806	2	49	2151591	62.5	1.0493127000518143	2	0
260.9082515370101	0.7985870996490121	2	49	2151591.729	68.75	0.9801663998514414	2	0
261.7068386366591	0.7976893000304699	2	49	2151592.542	68.75	0.9946454004384577	2	0
262.50452793668956	0.7971840002574027	2	49	2151593.39	62.5	1.0456567001529038	2	0
263.30171193694696	0.8076188	2	49	2151593.999	87.5	0.8570083999074996	2	0
264.1093307	0.8092978997156024	2	49	2151594.787	93.75	0.8371232999488711	2	0
264.9186286367476	0.7947517	2	49	2151595.6	87.5	0.8412959999404848	2	0
265.7133803367615	0.8015895001590252	2	49	2151596.318	100	0.7644417001865804	1	0
266.5149698369205	0.8017521998845041	2	49	2151597.101	100	0.7457546000368893	1	0
267.316722	0.8134786998853087	2	49	2151597.926	100	0.7691410998813808	1	0
268.1302007366903	0.7962913000956178	2	49	2151598.792	93.75	0.8220595000311732	2	0
268.92649203678593	0.7984659001231194	2	49	2151599.528	100	0.7609322001226246	1	0
269.72495793690905	0.7951083998195827	2	49	2151600.522	75	0.9570602998137474	2	0
270.52006633672863	0.8013130002655089	2	49	2151601.326	75	0.9654248999431729	2	0
271.32137933699414	0.7977625001221895	2	49	2151602.107	75	0.9456035997718573	2	0
272.11914183711633	0.7982385996729136	1	0	0	0	0	0	0
272.91738043678924	0.7984397001564503	2	49	2151603.491	100	0.7338103000074625	1	0
273.7158201369457	0.8097804998978972	1	49	2151604.27	93.75	0.7138973	1	0
274.5256006368436	0.7944515999406576	2	49	2151605.145	93.75	0.7796009001322091	2	0
275.32005223678425	0.7969305003061891	2	49	2151606.021	87.5	0.8609811998903751	2	0
276.11698273709044	0.7955849999561906	1	0	0	0	0	0	0
276.91256773704663	0.8100026999600232	2	49	2151607.553	93.75	0.8002813998609781	2	0
277.72257043700665	0.7948901	2	49	2151608.479	75	0.9165944000706077	2	0
278.5174605366774	0.7962311003357172	2	49	2151609.285	75	0.9276634003035724	2	0
279.3136916370131	0.7947506	2	49	2151609.936	93.75	0.7822962999343872	2	0
280.10844223666936	0.7978083002381027	2	49	2151610.677	100	0.7285054000094533	1	0
280.90625053690746	0.8011456998065114	2	49	2151611.503	100	0.7568768002092838	1	0
281.7073962	0.7958110002800822	2	49	2151612.413	87.5	0.8656463003717363	2	0
282.50320723699406	0.7962368000298738	1	0	0	0	0	0	0
283.29944403702393	0.8016257998533547	2	49	2151613.899	100	0.7588888998143375	1	0
284.1010698368773	0.7987592001445591	2	49	2151614.734	93.75	0.7931248000822961	2	0
284.89982903702185	0.7960288999602199	2	49	2151615.547	93.75	0.8072792999446392	2	0
285.69585793698207	0.7942588999867439	2	49	2151616.471	75	0.9346993998624384	2	0
286.4901168369688	0.7946997000835836	2	49	2151617.188	87.5	0.8573269997723401	2	0
287.2848165370524	0.7981610996648669	2	49	2151617.899	100	0.7743448000401258	1	0
288.08297763671726	0.7962585003115237	2	49	2151618.642	93.75	0.7185295	1	0
288.8792361370288	0.7973476997576654	2	49	2151619.545	87.5	0.8252186	2	0
289.67658383678645	0.8020651000551879	2	49	2151620.237	93.75	0.7204450001008809	1	0
290.47864893684164	0.8073625001125038	2	49	2151621.158	87.5	0.8395543000660837	2	0
291.28601143695414	0.7963454998098314	2	49	2151621.868	100	0.7422062000259757	1	0
292.0823569	0.8008318999782205	2	49	2151622.824	81.25	0.9011269002221525	2	0
292.8831888367422	0.7995442999526858	2	49	2151623.503	93.75	0.7791957999579608	2	0
293.6827331366949	0.8007533000782132	2	49	2151624.399	81.25	0.8757472	2	0
294.4834864367731	0.7949741999618709	2	49	2151625.29	75	0.9665415999479592	2	0
295.27846063673496	0.8032768000848591	2	49	2151626.122	68.75	1.003773800097406	2	0
296.0817374368198	0.797932	2	49	2151626.784	87.5	0.8617592002265155	2	0
296.87966943671927	0.7977752001024783	1	0	0	0	0	0	0
297.67744463682175	0.7955066002905369	2	49	2151628.423	81.25	0.9056044002063572	2	0
298.4729512371123	0.7950961999595165	2	49	2151629.205	81.25	0.8915345999412239	2	0
299.2680474370718	0.8041552999056876	1	0	0	0	0	0	0
300.0722027369775	0.7980110999196768	2	49	2151630.731	93.75	0.8185179997235537	2	0
300.87021383689716	0.7955095	2	49	2151631.679	75	0.9685006001964211	2	0
301.66572333686054	0.8039463	2	49	2151632.332	93.75	0.8260221001692116	2	0
302.4696696368046	0.7993586002849042	2	49	2151633.086	100	0.7760502998717129	1	0
303.2690282370895	0.7953454996459186	2	49	2151633.944	87.5	0.8347284998744726	2	0
304.06437373673543	0.7947524003684521	2	49	2151634.796	81.25	0.8913183999247849	2	0
304.8591261371039	0.8005796996876597	2	49	2151635.574	87.5	0.8746240995824337	2	0
305.65970583679155	0.7982580000534654	1	0	0	0	0	0	0
306.4579638	0.7984529999084771	2	49	2151637.038	100	0.7398818000219762	1	0
307.2564168367535	0.7953610001131892	2	49	2151637.873	93.75	0.7765285	2	0
308.0517778368667	0.7979033999145031	2	49	2151638.877	68.75	0.9850504999049008	2	0
308.8496812367812	0.7992311	2	49	2151639.741	62.5	1.0512943998910487	2	0
309.6489123366773	0.7961829002015293	2	49	2151640.321	87.5	0.8323678001761436	2	0
310.44509523687884	0.7970521999523044	2	0	0	0	0	0	0
311.24214743683115	0.7996383998543024	2	49	2151642.119	62.5	1.0361784002743661	2	0
312.04178583668545	0.8021299000829458	2	49	2151642.668	93.75	0.7861081003211439	2	0
312.8439157367684	0.8009449001401663	2	49	2151643.559	87.5	0.8750725002028048	2	0
313.64486063690856	0.7987965000793338	2	49	2151644.273	93.75	0.7881470997817814	2	0
314.4436571369879	0.7945797997526824	2	49	2151645.269	68.75	0.9854779997840524	2	0
315.2382369367406	0.8014889000914991	2	49	2151646.082	68.75	1.0036484003067017	2	0
316.0397258368321	0.7949610999785364	2	49	2151646.784	81.25	0.9044425999745727	2	0
316.8346869368106	0.7958042002283037	1	0	0	0	0	0	0
317.6304911370389	0.7980256997980177	2	49	2151648.53	62.5	1.0590423997491598	2	0
318.42851683683693	0.7952187000773847	2	49	2151649.45	43.75	1.1816628002561629	2	0
319.2237355369143	0.7956857997924089	2	49	2151650.179	50	1.115395000204444	2	0
320.0194213367067	0.7976877000182867	2	0	0	0	0	0	0
320.817109	0.8042541001923382	1	49	2151651.386	93.75	0.7282119002193213	1	0
321.62136313691735	0.7957327999174595	2	49	2151652.532	62.5	1.0708935000002384	2	0
322.4170959368348	0.8005273002199829	2	0	0	0	0	0	0
323.2176232370548	0.7948606	2	49	2151653.638	81.25	0.5805966998450458	1	0
324.0124838	0.7987660998478532	2	49	2151654.682	87.5	0.8292774995788932	2	0
324.81124993693084	0.7944303997792304	2	49	2151655.566	81.25	0.9149334998801351	2	0
325.60568033671007	0.7984739001840353	1	0	0	0	0	0	0
326.4041542368941	0.7948265001177788	2	49	2151657.004	100	0.7594838	1	0
327.1989807370119	0.8122017998248339	2	49	2151657.885	87.5	0.8454935997724533	2	0
328.0111825368367	0.7988960999064147	2	49	2151658.733	81.25	0.8812112999148667	2	0
328.8100786367431	0.7985388	2	49	2151659.543	81.25	0.8924501999281347	2	0
329.6086174370721	0.7955429996363819	2	49	2151660.283	87.5	0.8344979	2	0
330.4041604367085	0.7946995999664068	2	49	2151660.971	100	0.7264673002064228	1	0
331.1988600366749	0.7991669001057744	2	49	2151661.851	93.75	0.8122611003927886	2	0
331.99802693678066	0.8046625000424683	2	49	2151662.59	100	0.7514781001955271	1	0
332.80268943682313	0.7947689001448452	2	49	2151663.282	87.5	0.6390539002604783	1	0
333.5974583	0.8075966998003423	2	49	2151664.126	93.75	0.6883513000793755	1	0
334.4050550367683	0.7939357999712229	2	49	2151664.758	68.75	0.5125339003279805	1	0
335.19899083673954	0.8004036000929773	2	49	2151665.44	56.25	0.40056850016117096	1	0
335.9993944368325	0.8008351000025868	1	49	2151666.196	50	0.35622680000960827	1	0
336.8002295368351	0.7981238998472691	2	49	2151667.56	75	0.9194696000777185	2	0
337.5983534366824	0.7965519	2	49	2151668.347	81.25	0.9085245002061129	2	0
338.39490533666685	0.7964751003310084	2	49	2151669.288	62.5	1.053076000418514	2	0
339.19138043699786	0.7962704999372363	2	49	2151669.894	87.5	0.8626601998694241	2	0
339.9876509369351	0.7947050998918712	2	49	2151670.756	75	0.9283253001049161	2	0
340.78235603682697	0.7956836000084877	2	49	2151671.335	93.75	0.7125206999480724	1	0
341.57803963683546	0.7954910998232663	2	49	2151672.152	100	0.7342230002395809	1	0
342.3735307366587	0.8055246002040803	1	49	2151672.937	93.75	0.7232954003848135	1	0
343.1790553368628	0.7980424999259412	2	0	0	0	0	0	0
343.97709783678874	0.7950427001342177	1	49	2151674.604	93.75	0.7865789	2	0
344.77214053692296	0.7981079998426139	1	0	0	0	0	0	0
345.5702485367656	0.7960935002192855	2	49	2151676.371	75	0.9609479000791907	2	0
346.36634203698486	0.7986642997711897	2	49	2151676.964	100	0.7578878998756409	1	0
347.16500633675605	0.7956793000921607	2	49	2151677.981	68.75	0.9759302	2	0
347.9606856368482	0.7963598999194801	2	49	2151678.568	100	0.7675267998129129	1	0
348.7570455367677	0.7973223002627492	2	49	2151679.404	93.75	0.8064815001562238	2	0
349.55436783703044	0.7970710997469723	2	49	2151680.13	100	0.7355666998773813	1	0
350.3514389367774	0.7977364002726972	1	49	2151680.846	87.5	0.6540445000864565	1	0
351.1491753370501	0.7983837998472154	2	49	2151681.734	100	0.7441786	1	0
351.9475591368973	0.7949239001609385	2	49	2151682.542	100	0.7539658998139203	1	0
352.74248303705826	0.7943090996704996	2	49	2151683.294	93.75	0.7117331000044942	1	0
353.53679213672876	0.7978365002200007	2	49	2151684.159	93.75	0.7822882002219558	2	0
354.33462863694876	0.7989607998169959	2	49	2151685.06	81.25	0.8856192	2	0
355.13358943676576	0.7948970003053546	2	49	2151685.81	87.5	0.8366495999507606	2	0
355.9284864370711	0.7951701	2	49	2151686.89	50	1.120854899752885	2	0
356.72365653701127	0.7950734999030828	1	0	0	0	0	0	0
357.51873003691435	0.7946037999354303	2	49	2151688.077	93.75	0.7180254999548197	1	0
358.3133338368498	0.7942955000326037	2	49	2151688.957	93.75	0.8029926000162959	2	0
359.1076293368824	0.7935156999155879	2	49	2151689.809	87.5	0.8606908000074327	2	0
359.90114503679797	0.7970823002979159	1	0	0	0	0	0	0
360.6982273370959	0.7978860000148416	2	49	2151691.295	100	0.7562759	1	0
361.4961133371107	0.8038516999222338	2	49	2151692.243	81.25	0.9064142997376621	2	0
362.29996503703296	0.7973726997151971	2	49	2151693.114	68.75	0.9735155999660492	2	0
363.09733773674816	0.7950683999806643	2	49	2151693.935	68.75	0.9970940002240241	2	0
363.8924061367288	0.7980427001602948	2	49	2151694.645	81.25	0.9121101000346243	2	0
364.6904488368891	0.7979695000685751	2	49	2151695.524	68.75	0.9934569001197815	2	0
365.4884183369577	0.7953095999546349	2	49	2151696.175	87.5	0.8463043998926878	2	0
366.2837279369123	0.8019040999934077	2	49	2151697.074	75	0.9496324001811445	2	0
367.08563203690574	0.7950077001005411	2	49	2151697.824	81.25	0.8981902999803424	2	0
367.8806397370063	0.7968799998052418	2	49	2151698.639	81.25	0.9178289999254048	2	0
368.6775197368115	0.7961757001467049	2	49	2151699.307	93.75	0.7889467002823949	2	0
369.4736954369582	0.7964941998943686	2	49	2151700.257	75	0.9432534999214113	2	0
370.2701896368526	0.8034224999137223	2	49	2151700.916	93.75	0.8055338999256492	2	0
371.0736121367663	0.8080772003158927	2	49	2151701.873	75	0.9590781000442803	2	0
371.8816893370822	0.7949533998034894	2	49	2151702.677	75	0.9555933997035027	2	0
372.6766427368857	0.8008249001577497	2	49	2151703.389	87.5	0.8720157002098858	2	0
373.47746763704345	0.7953173997811973	2	49	2151704.324	68.75	1.0061940997838974	2	0
374.27278503682464	0.8034192998893559	2	49	2151705.097	68.75	0.9840084998868406	2	0
375.0762043	0.8010335001163185	2	49	2151705.812	81.25	0.8957347003743052	2	0
375.8772378368303	0.7977042999118567	2	49	2151706.788	62.5	1.0705917999148369	2	0
376.6749421367422	0.7953988001681864	2	49	2151707.536	62.5	1.0211251000873744	2	0
377.47034093691036	0.7993879998102784	2	49	2151708.146	87.5	0.8354933997616172	2	0
378.26972893672064	0.7946986	2	49	2151708.986	81.25	0.8761561000719666	2	0
379.06442753691226	0.7951054000295699	2	49	2151709.768	87.5	0.8636548	2	0
379.85953293694183	0.7984027001075447	2	49	2151710.674	68.75	0.9742978001013398	2	0
380.6579356370494	0.7988555	2	49	2151711.547	62.5	1.0488970000296831	2	0
381.4567911368795	0.7955192001536489	2	49	2151712.257	75	0.9601145000196993	2	0
382.2523103370331	0.7983025000430644	2	49	2151712.973	81.25	0.8805378000251949	2	0
383.0506128370762	0.7989618997089565	2	49	2151713.876	68.75	0.9854007000103593	2	0
383.84957473678514	0.7988387001678348	2	49	2151714.695	68.75	1.0056119002401829	2	0
384.6484134	0.7990979999303818	1	0	0	0	0	0	0
385.44751143688336	0.7951830998063087	2	49	2151716.2	81.25	0.9118397999554873	2	0
386.24269453668967	0.8027516002766788	2	49	2151717.086	68.75	1.0035637002438307	2	0
387.04544613696635	0.8001280999742448	2	49	2151717.992	56.25	1.1066819000989199	2	0
387.8455742369406	0.8004262000322342	2	49	2151718.674	68.75	0.9879612000659108	2	0
388.6460004369728	0.7953396998345852	2	49	2151719.421	75	0.9346737000159919	2	0
389.4413401368074	0.7945714	2	49	2151720.155	81.25	0.8739234	2	0
390.2359115369618	0.8069549999199808	2	49	2151720.904	93.75	0.8274626000784338	2	0
391.0428665368818	0.7955764001235366	2	49	2151721.733	87.5	0.8494847998954356	2	0
391.8384429370053	0.7950561996549368	1	0	0	0	0	0	0
392.63349913666025	0.7977492003701627	2	49	2151723.377	81.25	0.9037744	2	0
393.4312483370304	0.8031627000309527	2	49	2151724.089	93.75	0.8170886998996139	2	0
394.23441103706136	0.7959552998654544	2	49	2151724.803	100	0.7288509998470545	1	0
395.0303663369268	0.7970099998638034	2	49	2151725.864	68.75	0.9932658	2	0
395.8273763367906	0.7970177000388503	2	49	2151726.528	87.5	0.8601597002707422	2	0
396.6243940368295	0.8027647999115288	2	49	2151727.234	100	0.7690846999175847	1	0
397.4271588	0.7982334000989795	2	49	2151728.071	93.75	0.8035182999446988	2	0
398.2253922	0.7984227002598345	2	49	2151728.931	87.5	0.8651498002000153	2	0
399.0238149370998	0.7984452997334301	2	49	2151729.83	75	0.9657144998200238	2	0
399.82226023683324	0.8007952002808452	2	49	2151730.497	87.5	0.8347956002689898	2	0
400.6230554371141	0.7984809996560216	2	49	2151731.255	93.75	0.7916537998244166	2	0
401.4215364367701	0.7951328000053763	2	49	2151732.087	87.5	0.8249400001950562	2	0
402.2166692367755	0.8010972999036312	2	49	2151732.838	93.75	0.7816156	2	0
403.0177665366791	0.7963064000941813	2	49	2151733.717	87.5	0.8594333003275096	2	0
403.8140729367733	0.8004161003045738	2	49	2151734.522	87.5	0.8675021999515593	2	0
404.6144890370779	0.7981656999327242	2	49	2151735.337	81.25	0.8821604996919632	2	0
405.4126547370106	0.7988632996566594	2	49	2151736.06	93.75	0.8072561	2	0
406.21151803666726	0.8059633001685143	2	49	2151736.888	87.5	0.8364804000593722	2	0
407.0174813368358	0.8018573001027107	2	49	2151737.821	75	0.9634553	2	0
407.8193386369385	0.7951106000691652	2	49	2151738.663	68.75	1.0037584998644888	2	0
408.61444923700765	0.8008473	2	49	2151739.471	68.75	1.0166051997803152	2	0
409.4152965368703	0.8017795002087951	2	49	2151740.251	68.75	0.9954702001996338	2	0
410.2170760370791	0.8004728998057544	2	49	2151741.065	68.75	1.0078671998344362	2	0
411.01754893688485	0.7980829002335668	1	0	0	0	0	0	0
411.8156318371184	0.7986616999842227	2	49	2151742.413	100	0.7574590998701751	1	0
412.61429353710264	0.8007729	2	49	2151743.234	93.75	0.7795329997316003	2	0
413.41506643686444	0.7951127998530865	2	49	2151744.059	93.75	0.8041149000637233	2	0
414.2101792367175	0.8000950999557972	2	49	2151744.833	93.75	0.7826751000247896	2	0
415.0102743366733	0.8010425004176795	2	49	2151745.644	93.75	0.7934255003929138	2	0
415.8113168	0.7949146996252239	2	49	2151746.423	100	0.7711644996888936	1	0
416.6062315367162	0.7949939002282917	1	0	0	0	0	0	0
417.4012254369445	0.7969836	2	49	2151747.903	87.5	0.6612693001516163	1	0
418.19820903707296	0.7991030998528004	2	49	2151748.803	100	0.7648330996744335	1	0
418.99731213692576	0.8018008000217378	2	49	2151749.625	93.75	0.7871517	2	0
419.7991129369475	0.7979426998645067	2	49	2151750.457	93.75	0.8172899000346661	2	0
420.5970556	0.7998550999909639	2	49	2151751.347	81.25	0.9096538000740111	2	0
421.39691073680297	0.7972581000067294	2	49	2151751.937	93.75	0.7002464001998305	1	0
422.1941688368097	0.7981946002691984	2	49	2151752.679	87.5	0.6444681002758443	1	0
422.9923634370789	0.8020577	2	49	2151753.586	100	0.7538497997447848	1	0
423.7944211368449	0.7986797001212835	2	49	2151754.467	87.5	0.8327266001142561	2	0
424.5931008369662	0.8024959997273982	2	49	2151755.213	93.75	0.7801886997185647	2	0
425.3955968366936	0.7953531	2	49	2151755.98	100	0.7442438001744449	1	0
426.19094993686303	0.7952287998050451	2	49	2151756.849	93.75	0.8182581998407841	2	0
426.9861787366681	0.7998419003561139	2	49	2151757.545	93.75	0.7190973004326224	1	0
427.7860206370242	0.8005845998413861	2	49	2151758.29	87.5	0.6642893999814987	1	0
428.5866052368656	0.7958101001568139	2	49	2151759.06	87.5	0.6327694	1	0
429.3824153370224	0.7962392000481486	2	49	2151759.94	93.75	0.7171061998233199	1	0
430.17865453707054	0.7977024996653199	1	0	0	0	0	0	0
430.97635703673586	0.8034544000402093	2	49	2151761.536	93.75	0.7198986001312733	1	0
431.7798114367761	0.7984466003254056	2	49	2151762.405	93.75	0.7852004999294877	2	0
432.5782580371015	0.7959460997954011	2	49	2151763.283	87.5	0.8641436	2	0
433.3742041368969	0.7953308001160622	2	49	2151764.248	62.5	1.0337497000582516	2	0
434.16953493701294	0.7965865000151098	2	49	2151764.888	81.25	0.8780402	2	0
434.96612143702805	0.7985477	2	49	2151765.632	93.75	0.8253563996404409	2	0
435.76466913707554	0.7945203999988735	2	49	2151766.445	87.5	0.8399413996376097	2	0
436.5591895370744	0.7938408995978534	2	49	2151767.194	93.75	0.7942592999897897	2	0
437.35303043667227	0.7945946003310382	1	49	2151768.043	87.5	0.8498273002915084	2	0
438.1476250370033	0.8000417998991907	2	49	2151768.757	100	0.7689767	1	0
438.9476668369025	0.7951881000772119	2	49	2151769.5	93.75	0.7120170998387039	1	0
439.7428549369797	0.7951229996979237	2	49	2151770.374	93.75	0.7908831997774541	2	0
440.53797793667763	0.7947647	2	49	2151771.395	68.75	1.016838500276208	2	0
441.33274263702333	0.7971077999100089	2	49	2151771.914	100	0.7409191997721791	1	0
442.12985043693334	0.7984726000577211	1	49	2151772.777	93.75	0.8067982997745275	2	0
442.92832303699106	0.7957240999676287	2	0	0	0	0	0	0
443.7240471369587	0.7951229000464082	2	49	2151774.006	62.5	0.44180799974128604	1	0
444.5191700370051	0.8006985997781157	2	49	2151775.218	87.5	0.8589085000567138	2	0
445.3198686367832	0.7977185999043286	2	49	2151776.016	87.5	0.8561586001887918	2	0
446.11758723668754	0.7974106003530324	2	49	2151776.887	75	0.9291583001613617	2	0
446.9149978370406	0.7992597999982536	2	49	2151777.636	81.25	0.8809479000046849	2	0
447.7142576370388	0.7972703999839723	1	0	0	0	0	0	0
448.5115280370228	0.8010875997133553	2	49	2151779.152	93.75	0.8003476997837424	2	0
449.31261563673615	0.794773	1	0	0	0	0	0	0
450.10738863702863	0.7953421	2	49	2151780.927	68.75	0.9795488999225199	2	0
450.9027307368815	0.8067862000316381	1	0	0	0	0	0	0
451.70951693691313	0.7982632997445762	2	49	2151782.2	87.5	0.6505666999146342	1	0
452.5077802366577	0.7951488001272082	1	0	0	0	0	0	0
453.3029290367849	0.7958149001933634	2	49	2151783.908	100	0.7652069	1	0
454.0987439369783	0.800051	2	49	2151784.856	81.25	0.9172024000436068	2	0
454.8987949369475	0.7950582997873425	2	49	2151785.623	81.25	0.8837346001528203	2	0
455.69385323673487	0.8023067000322044	2	49	2151786.686	50	1.1521654003299773	2	0
456.49615993676707	0.7951902002096176	2	49	2151787.361	62.5	1.0250429003499448	2	0
457.2913501369767	0.8001902997493744	2	49	2151787.99	87.5	0.8580358000472188	2	0
458.09154043672606	0.7982247001491487	2	49	2151788.769	87.5	0.8376393001526594	2	0
458.8897651368752	0.7999124000780284	2	49	2151789.576	87.5	0.8459755000658333	2	0
459.68967753695324	0.8007446001283824	2	49	2151790.361	87.5	0.8315706001594663	2	0
460.4904221370816	0.7995617999695241	2	49	2151791.213	81.25	0.8828252996318042	2	0
461.28998393705115	0.7965237996540964	2	49	2151791.993	87.5	0.8624104997143149	2	0
462.08650773670524	0.8043166999705136	2	49	2151792.826	81.25	0.8989238999783993	2	0
462.89082443667576	0.8035628003999591	1	0	0	0	0	0	0
463.6943872370757	0.7953399997204542	2	49	2151794.41	81.25	0.8751328997313976	2	0
464.48972723679617	0.8014248	2	49	2151795.375	62.5	1.0455275001004338	2	0
465.2911520367488	0.8023216002620757	2	49	2151796.111	68.75	0.9801224	2	0
466.0934736370109	0.8020457997918129	2	0	0	0	0	0	0
466.8955194368027	0.7957382001914084	1	49	2151797.364	87.5	0.6287690000608563	1	0
467.6912576369941	0.7989276	2	49	2151798.777	37.5	1.2456008000299335	2	0
468.4901852	0.7957608	2	49	2151799.256	75	0.9256152999587357	2	0
469.285946	0.8055418003350496	1	0	0	0	0	0	0
470.09148783702403	0.7944425	2	49	2151800.654	93.75	0.7220536000095308	1	0
470.8859303370118	0.7960568000562489	2	49	2151801.619	81.25	0.8931527999229729	2	0
471.68198713706806	0.7992268996313214	2	49	2151802.404	81.25	0.8815223	2	0
472.4812140366994	0.7981765000149608	2	49	2151803.142	93.75	0.8201715000905097	2	0
473.27939053671435	0.7970926002599299	2	49	2151803.867	100	0.7473178999498487	1	0
474.0764831369743	0.7954266001470387	2	49	2151804.64	100	0.7236812999472022	1	0
474.8719097371213	0.8005813998170197	1	0	0	0	0	0	0
475.67249113693833	0.7982441000640392	2	49	2151806.206	93.75	0.6931716999970376	1	0
476.4707352370024	0.8006651001051068	2	49	2151807.42	56.25	1.1091267000883818	2	0
477.2714003371075	0.8016100996173918	2	49	2151807.909	93.75	0.7975860997103155	2	0
478.07301043672487	0.7985869003459811	1	0	0	0	0	0	0
478.87159733707085	0.7988958996720612	2	49	2151809.493	93.75	0.7812728998251259	2	0
479.6704932367429	0.7984001003205776	2	0	0	0	0	0	0
480.4688933370635	0.7953932	2	0	0	0	0	0	0
481.2642865367234	0.7956503	2	49	2151811.921	93.75	0.8166158003732562	2	0
482.05993683682755	0.7939705001190305	2	49	2151812.912	68.75	1.0122620002366602	2	0
482.8539073369466	0.8021229999139905	1	0	0	0	0	0	0
483.65603033686057	0.7976088002324104	2	49	2151814.293	93.75	0.7967813001014292	2	0
484.4536391	0.7942153997719288	2	49	2151815.178	81.25	0.8842527000233531	2	0
485.2478545368649	0.7945177000947297	2	49	2151815.991	81.25	0.9033695999532938	2	0
486.04237223695964	0.8038600999861956	1	0	0	0	0	0	0
486.84623233694583	0.7979783001355827	2	49	2151817.57	81.25	0.8836787999607623	2	0
487.6442106370814	0.7981225997209549	2	49	2151818.445	75	0.9602268	2	0
488.44233323680237	0.7996767000295222	2	49	2151819.348	62.5	1.0656673000194132	2	0
489.2420099368319	0.8058106	2	49	2151820.021	75	0.9390207002870739	2	0
490.0478205368854	0.7980088000185788	2	49	2151821.002	56.25	1.1142123998142779	2	0
490.8458293	0.7951858001761138	2	49	2151821.691	68.75	1.0051772999577224	2	0
491.6410151370801	0.7948482995852828	1	0	0	0	0	0	0
492.4358634366654	0.8101929002441466	2	49	2151823.168	81.25	0.8921118001453578	2	0
493.24605633690953	0.7968737999908626	2	49	2151824.069	68.75	0.9823700999841094	2	0
494.0429301369004	0.8014446999877691	2	49	2151824.858	75	0.9752899999730289	2	0
494.84437483688816	0.7972407001070678	2	49	2151825.651	75	0.9669027999043465	2	0
495.64161553699523	0.7983085997402668	2	49	2151826.545	62.5	1.0635192999616265	2	0
496.4399241367355	0.7973422999493778	2	49	2151827.444	50	1.1636459003202617	2	0
497.2372664366849	0.7952121002599597	2	0	0	0	0	0	0
498.03247853694484	0.7956333998590708	2	49	2151828.551	93.75	0.6779817999340594	1	0
498.8281119368039	n/a	0	49	2151829.32	87.5	0.6513161002658308	1	0