onset	duration	cue	constant1	timestamp	stimulus_coherence	response_time	response	constant2
20.73946767952293	0.8142642000457272	2	49	1031772.506	68.75	1.0436904999660328	2	0
21.55373187956866	0.8225296000018716	2	49	1031773.208	81.25	0.9316010000184178	2	0
22.37626147957053	0.8176047999877483	2	49	1031773.949	87.5	0.8499302000273019	2	0
23.19386627955828	0.8164159000152722	2	49	1031774.806	87.5	0.8892682	2	0
24.01028217957355	0.8181435000151396	2	49	1031775.376	87.5	0.6428795999381691	1	0
24.82842567958869	0.8552590999752283	2	49	1031776.336	100	0.7849440999561921	1	0
25.68368477956392	0.8232527000363916	1	49	1031776.913	68.75	0.5068086	1	0
26.50693747960031	0.8135976999765262	2	49	1031777.884	87.5	0.6543546998873353	1	0
27.320535179576837	0.8152130999369547	2	49	1031778.664	81.25	0.6207811000058427	1	0
28.13574827951379	0.8211417000275105	2	49	1031779.573	93.75	0.7144781000679359	1	0
28.95688998	0.8224332999670878	2	49	1031780.411	93.75	0.7311688000336289	1	0
29.77932327950839	0.8195149999810383	2	49	1031781.213	93.75	0.7107643000781536	1	0
30.598838279489428	0.8175142001127824	2	49	1031782.004	87.5	0.6826475000707433	1	0
31.41635247960221	0.8142665999475867	2	49	1031782.818	87.5	0.6791403999086469	1	0
32.23061908	0.8146903000306338	2	49	1031783.718	100	0.7648409999674186	1	0
33.04530937958043	0.8130617	2	49	1031784.522	100	0.7542415999341756	1	0
33.858371079550125	0.8210575999692082	2	49	1031785.419	93.75	0.8381635999539867	2	0
34.67942867951933	0.8221283999737352	2	49	1031786.103	93.75	0.7003081999719143	1	0
35.50155707949307	0.8164981	2	49	1031786.919	93.75	0.6949859000742435	1	0
36.318055179552175	0.8194054999621585	2	49	1031787.835	93.75	0.7944616000168025	2	0
37.137460679514334	0.8211466000648215	2	49	1031788.593	93.75	0.7331423000432551	1	0
37.958607279579155	0.8134637	2	49	1031789.548	87.5	0.8669800999341533	2	0
38.77207097958308	0.8155953999375924	2	49	1031790.111	81.25	0.6156246999744326	1	0
39.58766637952067	0.8230495000025257	2	49	1031791.036	93.75	0.7252149999840185	1	0
40.410715879523195	0.8173675000434741	2	49	1031791.971	93.75	0.8379098000004888	2	0
41.22808337956667	0.8278470999794081	2	49	1031792.785	93.75	0.8338240999728441	2	0
42.05593047954608	0.8162955000298098	2	49	1031793.648	87.5	0.8697544999886304	2	0
42.87222597957589	0.8163585999282077	2	49	1031794.358	100	0.7630890000145882	1	0
43.688584579504095	0.8271925000008196	2	49	1031795.163	100	0.7511714000720531	1	0
44.515777079504915	0.8274887000443414	2	49	1031795.9	87.5	0.6616871000733227	1	0
45.343265779549256	0.8172560000093654	2	49	1031796.894	93.75	0.8280075000366196	2	0
46.16052177955862	0.8147377000423148	2	49	1031797.701	93.75	0.8173600999871269	2	0
46.975259479600936	0.8181855999864638	2	49	1031798.314	81.25	0.6156776	1	0
47.79344508	0.8266654999461025	1	0	0	0	0	0	0
48.62011058	0.8238784000277519	1	0	0	0	0	0	0
49.443988979561254	0.8147439999738708	2	49	1031801.329	50	1.1620398999657482	2	0
50.258732979535125	0.8244888000190258	2	49	1031801.862	87.5	0.8803231000201777	2	0
51.08322177955415	0.8232774999924004	1	0	0	0	0	0	0
51.90649927954655	0.8164412999758497	1	0	0	0	0	0	0
52.72294058	0.8173160000005737	2	49	1031804.302	87.5	0.8563999000471085	2	0
53.540256579522975	0.8178813999984413	2	49	1031805.083	93.75	0.8197952000191435	2	0
54.358137979521416	0.8232121000764892	2	49	1031806.211	56.25	1.130066900048405	2	0
55.181350079597905	0.8186698999488726	2	49	1031806.802	81.25	0.8977981999050826	2	0
56.00001997954678	0.8188997999532148	2	49	1031807.761	68.75	1.0384499999927357	2	0
56.81891977949999	0.8195905000902712	2	49	1031808.322	100	0.7805451999884099	1	0
57.638510279590264	0.8202233999036252	1	0	0	0	0	0	0
58.45873367949389	0.8175557000795379	2	49	1031810.292	56.25	1.1105648000957444	2	0
59.27628937957343	0.8158285	2	49	1031810.966	75	0.9669409	2	0
60.09211787953973	0.8117365000071004	2	49	1031811.748	81.25	0.9332863000454381	2	0
60.90385437954683	0.8148436000337824	2	49	1031812.615	75	0.9884148000273854	2	0
61.71869797958061	0.8219625999918208	1	0	0	0	0	0	0
62.54066057957243	0.8204377	1	0	0	0	0	0	0
63.361098279594444	0.8216852999757975	2	49	1031814.997	81.25	0.9132111999206245	2	0
64.18278357957024	0.8166355999419466	2	49	1031815.869	75	0.9639013999840245	2	0
64.99941917951219	0.8170263000065461	2	49	1031816.733	68.75	1.0110246000112966	2	0
65.81644547951873	0.8136875000782311	2	49	1031817.216	87.5	0.6770097999833524	1	0
66.63013297959697	0.8199990999419242	2	49	1031818.431	62.5	1.078277499997057	2	0
67.45013207953889	0.8250126000493765	2	49	1031818.932	100	0.7593372999690473	1	0
68.27514467958827	0.8148020999506116	2	49	1031819.964	75	0.9656102999579161	2	0
69.08994677953888	0.8254940999904647	2	49	1031820.522	93.75	0.7094863000093028	1	0
69.91544087952934	0.8184341000160202	2	49	1031821.37	93.75	0.7313380000414327	1	0
70.73387497954536	0.8196005000500008	2	49	1031822.223	100	0.7658586000325158	1	0
71.55347547959536	0.8142303999047726	2	49	1031823.194	81.25	0.9172136998968199	2	0
72.36770587950014	0.8084779999917373	2	49	1031823.914	93.75	0.8237997000105679	2	0
73.17618387949187	0.8146954000694677	2	49	1031824.68	100	0.7814095000503585	1	0
73.99087927956134	0.8147709	2	49	1031825.59	87.5	0.8766083000227809	2	0
74.80565017950721	0.8196944000665098	1	49	1031826.292	100	0.7634080999996513	1	0
75.62534457957372	0.8196716000093147	2	49	1031827.308	75	0.9593852999387309	2	0
76.44501617958304	0.8266629999270663	2	49	1031828.322	50	1.1546466000145301	2	0
77.27167918	0.8162300999974832	2	49	1031828.927	81.25	0.9321534000337124	2	0
78.08790927950758	0.8225265999790281	2	49	1031829.683	87.5	0.8718248000368476	2	0
78.91043587948661	0.8231552001088858	2	49	1031830.43	93.75	0.7963086001109332	2	0
79.73359108	0.8115561999147758	2	49	1031831.204	100	0.7476938999025151	1	0
80.54514727951027	0.8154375000158325	2	49	1031832.147	87.5	0.8789683000650257	2	0
81.36058478	0.8098294000374153	1	0	0	0	0	0	0
82.17041417956352	0.8217546000378206	2	49	1031833.602	93.75	0.7088792999275029	1	0
82.99216877960134	0.8169556999346241	1	0	0	0	0	0	0
83.80912447953597	0.8195426999591291	1	0	0	0	0	0	0
84.62866718	0.8127526000607759	1	0	0	0	0	0	0
85.44141977955587	0.8179513999493793	2	49	1031836.866	93.75	0.7017000999767333	1	0
86.25937117950525	0.8128696	2	49	1031837.813	93.75	0.8306134000886232	2	0
87.07224078	0.8203818000620231	2	49	1031838.866	62.5	1.070938799995929	2	0
87.89262257958762	0.8171463999897242	1	49	1031839.236	81.25	0.6204724999843165	1	0
88.70976897957735	0.8101817999267951	2	49	1031840.178	100	0.7453831000020728	1	0
89.51995077950414	0.8272708000149578	2	49	1031841.11	87.5	0.8672064000274986	2	0
90.34722158	0.8181368000805378	2	49	1031841.812	100	0.7418494999874383	1	0
91.16535837959964	0.8140616999007761	2	49	1031842.801	81.25	0.9123755999607965	2	0
91.97942007950041	0.8140970000531524	2	49	1031843.542	87.5	0.8397447	2	0
92.79351707955357	0.8160555999493226	2	49	1031844.5	75	0.9836041999515146	2	0
93.60957267950289	0.8176118000410497	2	49	1031845.06	93.75	0.7275255999993533	1	0
94.42718447954394	0.8224406000226736	2	49	1031846.053	81.25	0.9030916000483558	2	0
95.24962507956661	0.8191956999944523	2	49	1031846.562	81.25	0.5895428	1	0
96.06882077956107	0.8227663999423385	1	0	0	0	0	0	0
96.89158718	0.8162443999899551	1	0	0	0	0	0	0
97.70783157949336	0.8209782000631094	2	49	1031849.263	93.75	0.8324914000695571	2	0
98.52880977955647	0.8171411999501288	2	49	1031849.883	81.25	0.6311018000124022	1	0
99.34595098	0.8177101000910625	2	49	1031850.86	93.75	0.7913918000413105	2	0
100.16366107959766	0.8187675999943167	2	49	1031851.707	93.75	0.8207657999591902	2	0
100.98242867959198	0.8210123999742791	2	49	1031852.659	75	0.9540545999770984	2	0
101.80344107956626	0.8196782999439165	2	49	1031853.659	56.25	1.1331342000048608	2	0
102.62311937951017	0.8170979000860825	2	49	1031854.167	93.75	0.8215352999977767	2	0
103.44021727959625	0.8170270998962224	2	49	1031855.201	68.75	1.0375412999419495	2	0
104.25724437949248	0.8215414000442252	2	49	1031855.683	93.75	0.7032520000357181	1	0
105.0787857795367	0.8159031999530271	2	49	1031856.74	81.25	0.9386660000309348	2	0
105.89468897948973	0.8201415000949055	1	49	1031857.526	81.25	0.9089186	2	0
106.71483047958463	0.8122548999963328	1	0	0	0	0	0	0
107.52708537958097	0.8171746999723837	2	49	1031858.972	93.75	0.7225286000175402	1	0
108.34426007955335	0.8157744000200182	2	49	1031859.757	93.75	0.6894573000026867	1	0
109.16003447957337	0.8188267	2	49	1031860.604	93.75	0.7209567999234423	1	0
109.97886117955204	0.8245615999912843	2	49	1031861.485	100	0.7834082000190392	1	0
110.80342277954333	0.8156566000543535	2	49	1031862.249	93.75	0.7223274999996647	1	0
111.61907937959768	0.8244359999662265	2	49	1031863.115	100	0.7727925999788567	1	0
112.4435153795639	0.8205871999962255	1	0	0	0	0	0	0
113.26410257956013	0.8203593000071123	1	0	0	0	0	0	0
114.08446187956724	0.8147499000187963	2	49	1031865.764	75	0.9567770999856293	2	0
114.89921177958604	0.8190959999337792	2	49	1031866.384	100	0.7620652999030426	1	0
115.71830777951982	0.8134468999924138	2	49	1031867.007	75	0.5655402999836951	1	0
116.53175467951223	0.8224525999976322	2	49	1031868.04	100	0.7852283000247553	1	0
117.35420727950986	0.8218310000374913	2	49	1031868.692	81.25	0.6146288000745699	1	0
118.17603827954736	0.8180675000185147	1	0	0	0	0	0	0
118.99410577956587	0.8181607000296935	1	0	0	0	0	0	0
119.81226647959556	0.8156132999574766	2	49	1031871.384	87.5	0.8487088999245316	2	0
120.62787977955304	0.8239362000022084	2	49	1031872.214	87.5	0.8637847999343649	2	0
121.45181597955525	0.8233854	2	49	1031873.156	75	0.9811980000231415	2	0
122.27520137955435	0.8090571999782696	2	49	1031873.648	87.5	0.6499161999672651	1	0
123.08425857953262	0.8122541999910027	2	49	1031874.629	93.75	0.8219804000109434	2	0
123.89651277952362	0.8150610000593588	2	49	1031875.493	87.5	0.873833	2	0
124.71157377958298	0.8165220000082627	2	49	1031876.387	75	0.9526315999682993	2	0
125.52809577959124	0.8148366	2	49	1031877.088	87.5	0.8370519999880344	2	0
126.34293237957172	0.8160434999736026	2	49	1031878.077	68.75	1.0111754999961704	2	0
127.15897587954532	0.8178024	2	49	1031878.54	87.5	0.6585421999916434	1	0
127.9767782795243	0.8130261	2	49	1031879.453	100	0.7537898999871686	1	0
128.78980437957216	0.8101092999568209	2	49	1031880.36	87.5	0.8474733999464661	2	0
129.59991367952898	0.8076085000066087	1	0	0	0	0	0	0
130.4075221795356	0.8125480000162497	2	49	1031881.95	93.75	0.8197930000023916	2	0
131.22007017955184	0.8175714999670163	2	49	1031882.897	75	0.9543472	2	0
132.03764167951886	0.8134141999762505	2	49	1031883.592	93.75	0.8316523000830784	2	0
132.8510558794951	0.8292707999935374	1	0	0	0	0	0	0
133.68032667948864	0.8220624000532553	2	49	1031885.05	81.25	0.6470630000112578	1	0
134.5023890795419	0.8159284	2	49	1031886.075	87.5	0.8499873999971896	2	0
135.3183174795704	0.8191762999631464	2	49	1031887.028	75	0.9864588999189436	2	0
136.13749377953354	0.8069957	2	49	1031887.717	87.5	0.8571529999608174	2	0
136.9444894795306	0.8111588000319898	2	49	1031888.62	75	0.9529643000569195	2	0
137.7556482795626	0.8091030999785289	2	49	1031889.485	68.75	1.0069835999747738	2	0
138.56475137954112	0.8147003999911249	2	49	1031890.394	56.25	1.1067100999644026	2	0
139.37945177953225	0.8160561999538913	2	49	1031891.006	81.25	0.9041214999742806	2	0
140.19550797948614	0.8199974000453949	2	49	1031891.846	81.25	0.9280806001042947	2	0
141.01550537953153	0.8132174999918789	2	49	1031892.65	81.25	0.9116115999640897	2	0
141.8287228795234	0.8254462999757379	2	49	1031893.45	81.25	0.8988640999887139	2	0
142.65416917949915	0.8198344	2	49	1031894.429	62.5	1.0515212999889627	2	0
143.47400357958395	0.8213282999349758	2	49	1031895.39	50	1.1928289999486879	2	0
144.29533187951893	0.8179102999856696	2	49	1031895.763	100	0.7452730999793857	1	0
145.1132421795046	0.8198066999902949	1	49	1031896.894	62.5	1.0574877000181004	2	0
145.9330488794949	0.8262615000130609	1	0	0	0	0	0	0
146.75931037950795	0.8164622000185773	2	49	1031898.404	81.25	0.9215401000110433	2	0
147.57577257952653	0.8164174000266939	2	49	1031899.179	87.5	0.8808987999800593	2	0
148.39218997955322	0.8109595000278205	2	49	1031900.038	81.25	0.9232117	2	0
149.20314947958104	0.8179038999369368	2	49	1031900.826	81.25	0.8998053999384865	2	0
150.02105337951798	0.8172777000581846	2	49	1031901.601	87.5	0.8570123000536114	2	0
150.83833107957616	0.8196498999604955	2	49	1031902.412	87.5	0.8506026000250131	2	0
151.65798097953666	0.8142326000379398	2	49	1031903.287	81.25	0.9060076	2	0
152.4722135795746	0.8218113000039011	1	0	0	0	0	0	0
153.2940248795785	0.8103315000189468	2	49	1031904.822	93.75	0.8052072999998927	2	0
154.10435637959745	0.8225825999397784	2	49	1031905.661	93.75	0.8343165999976918	2	0
154.92693897953723	0.8172104000113904	2	49	1031906.713	62.5	1.063099000020884	2	0
155.74414937954862	0.8209093000041321	2	49	1031907.462	75	0.9950357000343502	2	0
156.56505867955275	0.8101108999690041	2	49	1031908.155	87.5	0.8669336000457406	2	0
157.37516957952175	0.8171869000652805	2	49	1031909	81.25	0.9020751999923959	2	0
158.19235647958703	0.8191719999304041	2	49	1031909.726	93.75	0.8107868999941275	2	0
159.01152847951744	0.8213156000711024	2	49	1031910.81	62.5	1.0758741999743506	2	0
159.83284407958854	0.8191360000055283	2	49	1031911.407	87.5	0.8512687999755144	2	0
160.65198007959407	0.8183331999462098	1	0	0	0	0	0	0
161.47031327954028	0.8200960999820381	2	49	1031912.956	100	0.7630102999974042	1	0
162.29040937952232	0.8120764000341296	2	49	1031913.831	93.75	0.8178548000287265	2	0
163.10248577955645	0.8189416	2	49	1031914.796	75	0.9702370000304654	2	0
163.92142737959512	0.8161297	2	49	1031915.687	62.5	1.0427414999576285	2	0
164.7375570795266	0.8120380999753252	1	0	0	0	0	0	0
165.54959517950192	0.8286465000128374	1	0	0	0	0	0	0
166.37824167951476	0.8293347000144422	2	49	1031918.041	81.25	0.9402256000321358	2	0
167.2075763795292	0.8140013000229374	2	49	1031918.955	68.75	1.0249088000273332	2	0
168.02157767955214	0.814882	2	49	1031919.652	81.25	0.9078891000244766	2	0
168.83645967952907	0.8167922	2	49	1031920.527	75	0.9675897000124678	2	0
169.6532518794993	0.8177561000920832	2	49	1031921.521	50	1.1451579000568017	2	0
170.47100797959138	0.8161387000000104	2	49	1031921.935	100	0.7415285999886692	1	0
171.2871466795914	0.8142262999899685	2	49	1031922.864	87.5	0.8537799000041559	2	0
172.10137297958136	0.8120337999425828	2	49	1031923.625	93.75	0.8005545999621972	2	0
172.91340677952394	0.8167975000105798	2	49	1031924.494	87.5	0.8581962999887764	2	0
173.73020427953452	0.8159912000410259	2	49	1031925.248	93.75	0.7953928000060841	2	0
174.54619547957554	0.8176212999969721	1	49	1031925.829	75	0.5604609999572858	1	0
175.36381677957252	0.8278238999191672	2	49	1031927.035	81.25	0.9479102999903262	2	0
176.19164067949168	0.8240797000471503	2	49	1031927.817	81.25	0.9029516000300646	2	0
177.01572037953883	0.8176798999775201	2	49	1031928.593	87.5	0.8540990999899805	2	0
177.83340027951635	0.8267424000659958	1	49	1031929.602	68.75	1.045555700082332	2	0
178.66014267958235	0.8150705000152811	2	49	1031930.378	68.75	0.9945530999684706	2	0
179.47521317959763	0.8255771999247372	2	49	1031931.273	62.5	1.0747928	2	0
180.30079037952237	0.8193849000381306	2	49	1031932.002	75	0.9780791000230238	2	0
181.1201752795605	0.8145506	2	49	1031932.848	68.75	1.0046847999328747	2	0
181.93472587957513	0.8093251999234781	2	49	1031933.844	43.75	1.1861338999588042	2	0
182.7440510794986	0.8119101000484079	2	49	1031934.411	75	0.9437120000366122	2	0
183.5559612	0.8179590000072494	2	49	1031935.102	93.75	0.8229669999564067	2	0
184.37392017955426	0.8130631999811158	2	49	1031935.996	81.25	0.8993742000311613	2	0
185.18698337953538	0.8157716999994591	1	0	0	0	0	0	0
186.00275507953484	0.8157406999962404	2	49	1031937.558	93.75	0.8324781999690458	2	0
186.81849577953108	0.8161364999832585	2	49	1031938.289	100	0.7474305999930948	1	0
187.63463227951434	0.8191689000232145	1	0	0	0	0	0	0
188.45380117953755	0.8183901000302285	2	49	1031940.125	75	0.9481996	2	0
189.27219127956778	0.8161975999828428	2	49	1031940.876	87.5	0.8808731000171974	2	0
190.08838887955062	0.8180363000137731	2	49	1031941.734	81.25	0.9226399000035599	2	0
190.9064251795644	0.8118347999406978	1	49	1031942.32	93.75	0.6905367999570444	1	0
191.7182599795051	0.8143577000591904	2	49	1031943.538	56.25	1.0967860000673681	2	0
192.53261767956428	0.8192904000170529	2	49	1031944.1	87.5	0.844544	2	0
193.35190807958134	0.8145675999112427	1	49	1031945.29	43.75	1.2152888999553397	2	0
194.16647567949258	0.8202210000017658	2	49	1031945.896	68.75	1.006557400105521	2	0
194.98669667949434	0.8109092999948189	2	49	1031946.468	100	0.7587457000045106	1	0
195.79760597948916	0.8195216000312939	2	49	1031947.18	87.5	0.6597024000948295	1	0
196.61712757952046	0.8148262000177056	2	49	1031948.104	100	0.7645543999969959	1	0
197.43195377953816	0.8111079999944195	2	49	1031948.881	93.75	0.7259711000369862	1	0
198.24306177953258	0.8232967000221834	2	49	1031949.801	93.75	0.8354976000264287	2	0
199.06635847955476	0.8173364	2	49	1031950.544	100	0.7551005999557674	1	0
199.88369487959426	0.8172182999551296	2	49	1031951.457	87.5	0.8501789999427274	2	0
200.7009131795494	0.8224988000001758	2	49	1031952.323	81.25	0.8995025999611244	2	0
201.52341197954956	0.8153937000315636	2	49	1031953	100	0.7540332999778911	1	0
202.33880567958113	0.8084811000153422	2	49	1031953.862	93.75	0.79996	2	0
203.14728677959647	0.8133865999989212	1	0	0	0	0	0	0
203.9606733795954	0.8146555999992415	2	49	1031955.52	87.5	0.8366858999943361	2	0
204.77532897959463	0.8236316998954862	2	49	1031956.486	75	0.9882782999193296	2	0
205.59896067949012	0.8071611	2	49	1031957.334	68.75	1.0124983000569046	2	0
206.40612177958246	0.8177597000030801	2	49	1031957.975	87.5	0.8463873999426141	2	0
207.22388147958554	0.8155549999792129	2	49	1031958.743	93.75	0.7966427	2	0
208.03943647956476	0.8156158999772742	2	49	1031959.655	81.25	0.8931541999336332	2	0
208.85505237954203	0.8231624000472948	1	49	1031960.432	87.5	0.8545924000209197	2	0
209.67821477958933	0.8199642	2	49	1031961.316	81.25	0.9154437999241054	2	0
210.49817897949833	0.8140863000880927	2	49	1031962.229	68.75	1.0076585999922827	2	0
211.31226527958643	0.8157742	2	49	1031962.855	93.75	0.8194634999381378	2	0
212.1280394794885	0.8172640000702813	2	49	1031963.676	93.75	0.8247810000320897	2	0
212.9453034795588	0.8161617999430746	2	49	1031964.509	93.75	0.8403886000160128	2	0
213.76146527950186	0.8166587	2	49	1031965.404	81.25	0.9201531000435352	2	0
214.5781239795033	0.8141963999951258	2	49	1031966.04	93.75	0.7385852000443265	1	0
215.39232037949841	0.8181631000479683	2	49	1031966.767	87.5	0.6515029000584036	1	0
216.21048347954638	0.8085306000430137	2	49	1031967.651	93.75	0.7177482000552118	1	0
217.0190140795894	0.8156316999811679	2	49	1031968.51	100	0.7677324999822304	1	0
217.83464577957056	0.81409	2	49	1031969.377	93.75	0.8191975000081584	2	0
218.64873577957042	0.8192866999888793	2	49	1031970.249	87.5	0.8772640000097454	2	0
219.4680224795593	0.8128540000179783	1	0	0	0	0	0	0
220.28087647957727	0.8187017999589443	2	49	1031971.704	93.75	0.6999433999881148	1	0
221.09957827953622	0.8192086999770254	2	49	1031972.8	75	0.9773959000594914	2	0
221.91878697951324	0.8176488999743015	2	49	1031973.535	81.25	0.8931795000098646	2	0
222.73643587948754	0.8166932000312954	2	49	1031974.116	87.5	0.6570095	1	0
223.55312907951884	0.8113016000716016	2	49	1031975.278	68.75	1.001926299999468	2	0
224.36443067959044	0.8132659000111744	2	49	1031975.96	87.5	0.8728749000001699	2	0
225.17769657960162	0.8226818999974057	2	49	1031977.041	56.25	1.1408569999039173	2	0
226.00037847959902	0.8274404	2	0	0	0	0	0	0
226.8278188795084	0.8091840000124648	2	49	1031978.212	87.5	0.6613984000869095	1	0
227.63700287952088	0.8239155	2	49	1031979.539	50	1.179210599977523	2	0
228.4609183795983	0.8114602999994531	2	49	1031979.98	93.75	0.7962077999254689	2	0
229.27237867959775	0.8111551000038162	2	49	1031980.735	100	0.7397241999860853	1	0
230.08353377960157	0.8106444	2	49	1031981.631	93.75	0.8249431999865919	2	0
230.89417817955837	0.8170278000179678	2	49	1031982.441	93.75	0.8242797999409959	2	0
231.71120597957633	0.8160488000139594	1	0	0	0	0	0	0
232.5272547795903	0.8121758	2	49	1031983.996	100	0.7459813999012113	1	0
233.3394305795664	0.8166364999487996	2	49	1031984.929	87.5	0.8667645999230444	2	0
234.1560670795152	0.8225514000514522	2	49	1031985.859	75	0.9804435999831185	2	0
234.97861847956665	0.8108550999313593	2	49	1031986.547	87.5	0.8457706000190228	2	0
235.7894736	0.8177014000248164	2	49	1031987.353	87.5	0.8409096000250429	2	0
236.60717497952282	0.8149795000208542	1	0	0	0	0	0	0
237.42215447954368	0.8170924000442028	2	49	1031989.023	87.5	0.8783408999443054	2	0
238.23924687958788	0.8209316999418661	2	49	1031990.009	62.5	1.047119399998337	2	0
239.06017857952975	0.8245301999850199	2	49	1031990.921	56.25	1.138317900011316	2	0
239.88470877951477	0.8304349000100046	1	0	0	0	0	0	0
240.71514367952477	0.8245123999658972	1	0	0	0	0	0	0
241.53965607949067	0.8201247000833973	2	49	1031993.249	75	0.9868321000831202	2	0
242.35978077957407	0.8149600999895483	2	49	1031993.967	87.5	0.8847246000077575	2	0
243.17474087956361	0.8110885999631137	2	49	1031994.822	81.25	0.9248876000056043	2	0
243.98582947952673	0.8174216999905184	2	49	1031995.649	81.25	0.9408019999973476	2	0
244.80325117951725	0.8199211000464857	2	49	1031996.386	87.5	0.8604341000318527	2	0
245.62317227956373	0.8194749	1	49	1031997.032	87.5	0.6864602999994531	1	0
246.44264717958868	0.8153683999553323	2	49	1031998.103	75	0.9372522999765351	2	0
247.2580156	0.8188328000251204	2	49	1031998.905	81.25	0.9237566000083461	2	0
248.07684837956913	0.8103237999603152	2	49	1031999.656	87.5	0.8558447000104934	2	0
248.88717217952944	0.8264336000429466	1	49	1032000.571	75	0.9606909999856725	2	0
249.7136057795724	0.8205848999787122	2	49	1032001.167	93.75	0.7300971000222489	1	0
250.5341906795511	0.8158711999421939	2	49	1032002.188	81.25	0.9306191999930888	2	0
251.3500618794933	0.8141436000587419	2	49	1032002.931	87.5	0.8577852000016719	2	0
252.16420547955204	0.8161171999527141	1	0	0	0	0	0	0
252.98032267950475	0.8210209000390023	2	49	1032004.618	81.25	0.9144355000462383	2	0
253.80134357954375	0.8105522999539971	2	49	1032005.507	75	0.9826685000443831	2	0
254.61189587949775	0.8203838000772521	1	49	1032006.254	81.25	0.9189676000969484	2	0
255.4322797	0.8202017999719828	1	0	0	0	0	0	0
256.2524815	0.8105387999676168	2	49	1032007.735	100	0.7593562999973074	1	0
257.0630202795146	0.8150749000487849	1	0	0	0	0	0	0
257.8780951795634	0.8135424	2	49	1032009.317	93.75	0.7159141999436542	1	0
258.6916375795845	0.8187092000152916	2	49	1032010.288	87.5	0.8736232999945059	2	0
259.5103467795998	0.8136402999516577	1	0	0	0	0	0	0
260.32398707955144	0.8189083	2	49	1032011.762	93.75	0.7150862000416964	1	0
261.1428953795694	0.8151985999429598	2	49	1032012.881	68.75	1.0153092999244109	2	0
261.95809397951234	0.8157666000770405	2	49	1032013.709	68.75	1.0282878000289202	2	0
262.7738605795894	0.8171359999105334	2	49	1032014.572	62.5	1.0753471999196336	2	0
263.5909965794999	0.8172066000988707	2	49	1032015.161	87.5	0.8475000000325963	2	0
264.4082031795988	0.8119427999481559	2	49	1032015.871	100	0.7399841999867931	1	0
265.22014597954694	0.8165327999740839	1	0	0	0	0	0	0
266.0366788	0.8313391000265256	2	49	1032017.689	81.25	0.9296649000607431	2	0
266.86801787954755	0.8097274999599904	2	49	1032018.492	81.25	0.9012258000439033	2	0
267.67774537950754	0.8194050000747666	2	49	1032019.392	68.75	0.9915569	2	0
268.4971503795823	0.8154956999933347	2	49	1032020.019	93.75	0.7995139999547973	2	0
269.31264607957564	0.8170721000060439	2	49	1032020.892	87.5	0.8566623999504372	2	0
270.1297181795817	0.8171268999576569	2	49	1032021.876	68.75	1.0236730999313295	2	0
270.94684507953934	0.8142060999525711	2	49	1032022.72	62.5	1.0501442999811843	2	0
271.7610511794919	0.8191200000001118	1	0	0	0	0	0	0
272.5801712	0.8266596000175923	2	49	1032024.309	68.75	1.0063626000192016	2	0
273.4068307795096	0.8122014000546187	2	49	1032025.101	75	0.9718274000333622	2	0
274.21903217956424	0.8261632999638095	2	49	1032026.174	43.75	1.2325612	2	0
275.04519547952805	0.8159036000724882	2	49	1032026.799	68.75	1.0305618999991566	2	0
275.86109907960054	0.8106250999262556	2	49	1032027.56	75	0.9757988998899236	2	0
276.6717241795268	0.8146969999652356	2	49	1032028.536	56.25	1.141827999963425	2	0
277.4864212	0.8187515	2	49	1032029.069	87.5	0.8601864000083879	2	0
278.3051726795966	0.8234336999012157	2	49	1032029.889	87.5	0.8609435999533162	2	0
279.1286063794978	0.8229190000565723	2	49	1032030.903	62.5	1.051196200074628	2	0
279.95152537955437	0.8141743999440223	2	49	1032031.561	81.25	0.8870829000370577	2	0
280.7656997794984	0.8138919	2	49	1032032.298	93.75	0.8093928000889719	2	0
281.5795916795032	0.8144738000119105	2	49	1032033.391	56.25	1.0882033000234514	2	0
282.3940654795151	0.8121810000156984	2	49	1032033.877	100	0.7596317999996245	1	0
283.2062464795308	0.8121	1	0	0	0	0	0	0
284.0183464795118	0.8217485999921337	1	0	0	0	0	0	0
284.84009507950395	0.8149115000851452	2	49	1032036.517	75	0.9540460000280291	2	0
285.6550065795891	0.8216869999887422	2	49	1032037.428	62.5	1.0498026999412104	2	0
286.47669357957784	0.8128921999596059	2	49	1032038.159	75	0.9591655000112951	2	0
287.28958577953745	0.8116844999603927	2	49	1032038.848	87.5	0.8352887999499217	2	0
288.10127027949784	0.814403	2	49	1032039.606	100	0.7817399	1	0
288.9156732795527	0.8220953999552876	2	49	1032040.55	81.25	0.9119076000060886	2	0
289.7377687	0.8106163000920787	2	49	1032041.402	75	0.9411264000227675	2	0
290.5483849796001	0.8148293999256566	2	49	1032041.971	93.75	0.7000206999946386	1	0
291.36321437952574	0.8278233000310138	2	49	1032043.161	62.5	1.0747501000296324	2	0
292.19103767955676	0.8230592	2	49	1032044.017	62.5	1.1029739000368863	2	0
293.0140968795167	0.8140946000348777	2	49	1032044.704	75	0.9668926000595093	2	0
293.8281914795516	0.813802	2	49	1032045.585	68.75	1.0340035000117496	2	0
294.6419934795704	0.8092243999708444	2	49	1032046.25	81.25	0.8851184999803081	2	0
295.4512178795412	0.8209017999470234	2	49	1032047.15	75	0.9758619000203907	2	0
296.27211967948824	0.820869	2	49	1032047.903	81.25	0.9084785000886768	2	0
297.09298867953476	0.8240260999882594	2	49	1032048.739	81.25	0.9232786999782547	2	0
297.9170148	0.8201542000751942	2	49	1032049.544	81.25	0.9040692000417039	2	0
298.7371689795982	0.8158018999965861	2	49	1032050.422	75	0.9620093998964876	2	0
299.5529708795948	0.8134454999817535	2	49	1032051.135	87.5	0.8593414999777451	2	0
300.36641637957655	0.8173048999160528	2	49	1032051.867	100	0.7777409999398515	1	0
301.1837212794926	0.8164397000800818	2	49	1032052.863	75	0.9569174000062048	2	0
302.0001609795727	0.8166245	2	49	1032053.603	87.5	0.8801664999919012	2	0
302.8167854795465	0.8168698999797925	2	49	1032054.354	93.75	0.8143683000234887	2	0
303.6336553795263	0.8178417000453919	2	49	1032055.443	62.5	1.0869715000735596	2	0
304.4514970795717	0.8120126000139862	2	49	1032055.964	93.75	0.7898424	2	0
305.2635096795857	0.8185295999282971	2	49	1032057.177	50	1.1908062999136746	2	0
306.0820393	0.8151616000104696	2	49	1032057.721	81.25	0.9162556000519544	2	0
306.89720087952446	0.8169838000321761	2	49	1032058.428	93.75	0.8077832000562921	2	0
307.71418467955664	0.8143400000408292	1	0	0	0	0	0	0
308.52852467959747	0.8168183999368921	2	49	1032059.866	81.25	0.6148868999443948	1	0
309.34534307953436	0.8159839999862015	2	49	1032061.032	75	0.9641071000369266	2	0
310.16132707952056	0.8241484999889508	2	49	1032061.674	100	0.7893842000048608	1	0
310.9854755795095	0.8138074000598863	2	49	1032062.604	81.25	0.8960823999950662	2	0
311.7992829795694	0.8135606999276206	2	49	1032063.257	100	0.7352516999235377	1	0
312.6128437	0.8116749000037089	2	49	1032064.086	100	0.7501225000014529	1	0
313.4245185795007	0.8215539	2	49	1032065.08	81.25	0.9329172000288963	2	0
314.2460724795237	0.8124238000018522	2	49	1032065.739	100	0.7698543	1	0
315.05849627952557	0.8162065000506118	2	49	1032066.612	93.75	0.8302758999634534	2	0
315.8747027795762	0.8160792000126094	2	49	1032067.33	93.75	0.7321618999121711	1	0
316.6907819795888	0.8142459999071434	2	49	1032068.232	93.75	0.8179362999508157	2	0
317.50502797949594	0.8156718000536785	2	49	1032069.193	75	0.9649072	2	0
318.3206997795496	0.8225038000382483	2	49	1032070.028	75	0.9844899999443442	2	0
319.14320357958786	0.8123768999939784	2	49	1032070.772	81.25	0.9055381	2	0
319.95558047958184	0.8153080999618396	2	49	1032071.928	37.5	1.249264599988237	2	0
320.7708885795437	0.8155781000386924	2	49	1032072.233	100	0.7389336000196636	1	0
321.5864666795824	0.8165230000158772	2	49	1032073.074	100	0.7643393999896944	1	0
322.40298967959825	0.8240453999023885	2	49	1032073.962	93.75	0.8361959999892861	2	0
323.22703507950064	0.8253711	2	49	1032074.775	93.75	0.8248307	2	0
324.05240617960226	0.8137162999482825	1	0	0	0	0	0	0
324.86612247955054	0.8166880999924615	2	49	1032076.459	87.5	0.8698866999475285	2	0
325.6828106	0.8100040999706835	2	49	1032077.227	93.75	0.8210934000089765	2	0
326.4928146795137	0.8092373000690714	2	49	1032078.181	75	0.9653639000607654	2	0
327.30205197958276	0.8122178999474272	2	49	1032079.046	68.75	1.0208859000122175	2	0
328.1142698795302	0.8180846000323072	2	49	1032080.045	43.75	1.2077854999806732	2	0
328.9323544795625	0.8161186999641359	2	49	1032080.738	62.5	1.082902199937962	2	0
329.7484731795266	0.8175552999600768	2	0	0	0	0	0	0
330.5660284794867	0.8142993000801653	1	0	0	0	0	0	0
331.38032777956687	0.8148443999234587	2	49	1032083.047	75	0.9438257999718189	2	0
332.1951721794903	0.8172799000749364	2	49	1032083.838	81.25	0.9198982000816613	2	0
333.01245207956526	0.8187592999311164	2	49	1032085.122	25	1.3871449999278411	2	0
333.8312113794964	0.8136006999993697	2	49	1032085.597	62.5	1.043131500016898	2	0
334.64481207949575	0.8170008000452071	2	49	1032086.572	43.75	1.2048260000301525	2	0
335.46181287954096	0.8200432000448927	2	49	1032087.501	31.25	1.3163936999626458	2	0
336.28185607958585	0.8125750999897718	2	49	1032087.908	81.25	0.9034788999706507	2	0
337.0944311795756	0.8146914999233559	2	49	1032088.602	93.75	0.7851315999869257	2	0
337.9091227	0.8149894000962377	2	49	1032089.483	87.5	0.8515542	2	0
338.7241120795952	0.8150218999944627	2	49	1032090.274	93.75	0.8272787	2	0
339.5391339795897	0.8190085	2	49	1032091.045	100	0.7825788999907672	1	0
340.3581424795557	0.8202117	1	49	1032092.115	68.75	1.034520799992606	2	0
341.17835417948663	0.8173168000066653	1	0	0	0	0	0	0
341.9956709794933	0.8158952000085264	1	0	0	0	0	0	0
342.8115661795018	0.8146787	2	49	1032093.887	50	0.3528531000483781	1	0
343.62624487956055	0.8147540999343619	2	49	1032095.147	93.75	0.7976814999710768	2	0
344.4409989794949	0.8126333000836894	2	49	1032095.919	100	0.7549209001008421	1	0
345.2536322795786	0.8174109999090433	2	49	1032096.812	93.75	0.8360234999563545	2	0
346.07104327948764	0.8180502000031993	1	0	0	0	0	0	0
346.88909347949084	0.8133784000528976	2	49	1032098.403	93.75	0.7907696000766009	2	0
347.70247187954374	0.8161600000457838	2	49	1032099.236	93.75	0.8103374	2	0
348.5186318795895	0.8235996	2	49	1032100.14	81.25	0.8990138999652117	2	0
349.3422314795898	0.8156469999812543	2	49	1032101.185	56.25	1.1194841999094933	2	0
350.1578784795711	0.8129273	2	49	1032101.797	81.25	0.9159963999409229	2	0
350.9708057795651	0.8168965999502689	2	49	1032102.448	100	0.7542497999966145	1	0
351.7877023795154	0.8172227999893948	2	49	1032103.319	93.75	0.8083485000533983	2	0
352.6049251795048	0.8160490000154823	2	49	1032104.06	100	0.7320517000043765	1	0
353.4209741795203	0.8132764999754727	2	49	1032105.158	68.75	1.0138459000736475	2	0
354.23425067949574	0.8162833000533283	2	49	1032105.827	87.5	0.8695342000573874	2	0
355.0505339795491	0.8181284	2	49	1032106.611	93.75	0.8376249000430107	2	0
355.86866237956565	0.8190270999912173	2	49	1032107.171	75	0.5795042000245303	1	0
356.68768947955687	0.8194488999433815	2	49	1032108.379	75	0.9681853000074625	2	0
357.50713837950025	0.8191623000893742	1	0	0	0	0	0	0
358.3263006795896	0.8168686999706551	2	49	1032109.948	81.25	0.8986305999569595	2	0
359.1431693795603	0.8106529000215232	2	49	1032110.707	87.5	0.8408109999727458	2	0
359.9538222795818	0.8180951999966055	2	49	1032111.604	81.25	0.9272995	2	0
360.7719174795784	0.8167330999858677	1	49	1032112.439	75	0.9441680000163615	2	0
361.5886505795643	0.8137064999900758	2	49	1032113.123	93.75	0.8113880000310019	2	0
362.40235707955435	0.8141579999355599	2	49	1032114.234	56.25	1.1088938999455422	2	0
363.2165150794899	0.8217363000148907	2	49	1032114.623	87.5	0.6836186000145972	1	0
364.0382513795048	0.8187211999902502	2	49	1032115.484	93.75	0.7228815000271425	1	0
364.85697257949505	0.8172179000684991	2	49	1032116.404	93.75	0.8240927000297233	2	0
365.67419047956355	0.8150063	2	49	1032117.181	100	0.7839265000075102	1	0
366.48919677955564	0.8157117000082508	2	49	1032118.028	93.75	0.8159252000041306	2	0
367.3049084795639	0.8169621999841183	2	49	1032118.89	87.5	0.8627579000312835	2	0
368.1218707	0.8197708999505267	2	49	1032119.881	68.75	1.0364931999938563	2	0
368.94164157949854	0.8209949000738561	2	49	1032120.483	93.75	0.8185493000783026	2	0
369.7626364795724	0.8236559999641031	2	49	1032121.413	81.25	0.9276934999506921	2	0
370.5862924795365	0.8206546000437811	2	49	1032122.325	68.75	1.0162704000249505	2	0
371.4069470795803	0.8112929000053555	2	49	1032122.996	87.5	0.866542	2	0
372.21823997958563	0.8156137999612838	2	49	1032123.686	100	0.7452689999481663	1	0
373.0338537795469	0.8233946999534965	1	49	1032124.664	81.25	0.9076952999457717	2	0
373.8572484795004	0.8152335000922903	2	49	1032125.284	93.75	0.7041967	1	0
374.6724819795927	0.8098632999463007	2	49	1032126.295	81.25	0.8992632000008598	2	0
375.4823453	0.8160955000203103	2	49	1032127.36	50	1.1553206000244245	2	0
376.2984407795593	0.8160461999941617	2	49	1032127.978	75	0.9564030999317765	2	0
377.1144869795535	0.8085499999579042	2	49	1032128.655	93.75	0.8181544999824837	2	0
377.9230369795114	0.8163291000528261	2	49	1032129.501	87.5	0.8556397000793368	2	0
378.7393660795642	0.8112439999822527	2	49	1032130.259	93.75	0.7972048999508843	2	0
379.55061007954646	0.8146310000447556	2	49	1032131.319	62.5	1.0460352000081912	2	0
380.3652410795912	0.8129387999651954	2	49	1032132.366	37.5	1.2774704999756068	2	0
381.1781798795564	0.8148698000004515	2	49	1032132.924	68.75	1.0234814999857917	2	0
381.99304967955686	0.8100519999861717	2	49	1032133.576	87.5	0.8605536000104621	2	0
382.80310167954303	0.8147559	2	49	1032134.511	75	0.9855598	2	0
383.6178575794911	0.8104188001016155	2	49	1032135.152	93.75	0.8117201999993995	2	0
384.4282763795927	0.8253698999760672	2	49	1032135.973	93.75	0.8217685999115929	2	0
385.2536462795688	0.8245583999669179	2	49	1032136.916	81.25	0.9391438999446109	2	0
386.0782046795357	0.8146891000214964	1	49	1032137.508	93.75	0.7067428999580443	1	0
386.8928937795572	0.8136231999378651	2	49	1032138.506	87.5	0.8898402	2	0
387.70651697949506	0.8184751000953838	2	49	1032139.218	100	0.7885793000459671	1	0
388.52499207959045	0.8124246000079438	2	49	1032140.019	100	0.7709214	1	0
389.3374166795984	0.8193401999305934	2	49	1032140.783	93.75	0.7224877999396995	1	0
390.1567569	0.8165619999635965	1	49	1032141.604	93.75	0.7243182000238448	1	0
390.9733188794926	0.8156609000870958	2	49	1032142.787	62.5	1.0906192000256851	2	0
391.7889797795797	0.8122467	2	49	1032143.286	100	0.7740207000169903	1	0
392.60122647951357	0.8125542000634596	2	49	1032144.014	93.75	0.6896163000492379	1	0
393.41378067957703	0.8161727999104187	1	49	1032144.909	100	0.7722279999870807	1	0
394.22995347948745	0.8155308000277728	2	49	1032145.797	87.5	0.8443771000020206	2	0
395.0454842795152	0.8214764000149444	2	49	1032146.706	81.25	0.9376273000380024	2	0
395.86696067953017	0.8035002000397071	2	49	1032147.397	93.75	0.8070622000377625	2	0
396.6704608795699	0.8183547999942675	2	49	1032148.237	87.5	0.8435928999679163	2	0
397.48881567956414	0.8173467	2	49	1032149.031	93.75	0.8192866999888793	2	0
398.30616237956565	0.8262785000260919	2	49	1032149.851	93.75	0.8218786999350414	2	0
399.13244087959174	0.8167643999913707	2	49	1032150.712	87.5	0.8567142	2	0
399.9492052795831	0.8184321000007913	2	0	0	0	0	0	0
400.7676373795839	0.8203096	2	49	1032151.932	62.5	0.4415473999688402	1	0
401.5879469795618	0.8189864000305533	2	49	1032153.261	75	0.9503218999598175	2	0
402.4069333795924	0.8135858	2	49	1032153.878	100	0.7483409999404103	1	0
403.2205191795947	0.8188989999471232	2	49	1032154.86	81.25	0.9170997999608517	2	0
404.0394181795418	0.8157415	2	49	1032155.706	75	0.9438240999588743	2	0
404.85515967954416	0.8249467000132427	2	49	1032156.265	87.5	0.6871749	1	0
405.6801063795574	0.8184580999659374	1	49	1032157.168	100	0.7655548999318853	1	0
406.49856447952334	0.8157934000482783	2	49	1032157.968	100	0.7467489000409842	1	0
407.3143578795716	0.8118906000163406	2	49	1032158.877	87.5	0.8399521999526769	2	0
408.12624847958796	0.8103658	1	0	0	0	0	0	0
408.93661427951884	0.8164683000650257	1	0	0	0	0	0	0
409.75308257958386	0.8083779999287799	2	49	1032161.337	87.5	0.8615201999200508	2	0
410.56146057951264	0.8253362000687048	2	49	1032162.033	100	0.7489360000472516	1	0
411.38679677958135	0.8130275	2	49	1032163.073	75	0.9629495999542996	2	0
412.19982427952345	0.8139842000091448	2	49	1032163.818	81.25	0.8956407000077888	2	0
413.0138084795326	0.8197381000500172	2	49	1032164.683	75	0.9459579000249505	2	0
413.8335465795826	0.8168881	2	49	1032165.491	81.25	0.934913	2	0
414.6504346795846	0.8109173999400809	2	49	1032166.241	87.5	0.8681590999476612	2	0
415.46135207952466	0.8144840999739245	2	49	1032166.967	100	0.7832278000423685	1	0
416.2758361794986	0.8072160000447184	2	49	1032167.909	81.25	0.9108234000159428	2	0
417.0830521795433	0.8180269999429584	2	49	1032168.57	100	0.7640014999778941	1	0
417.90107917948626	0.8158407000591978	2	49	1032169.414	93.75	0.7905734000960365	2	0
418.71691987954546	0.8127473000204191	2	49	1032170.312	87.5	0.8722199000185356	2	0
419.5296671795659	0.8189157	2	49	1032171.262	68.75	1.0096633000066504	2	0
420.34858287952375	0.8199863000772893	1	49	1032172.028	75	0.9564889000030234	2	0
421.16856917960104	0.8180825999006629	2	49	1032172.822	81.25	0.9303078	2	0
421.9866517795017	0.8192969000665471	2	49	1032173.531	93.75	0.8211426000343636	2	0
422.80594867956825	0.8173632000107318	2	49	1032174.199	87.5	0.669883	1	0
423.6233119	0.8233814999694005	2	49	1032175.058	93.75	0.7114865999901667	1	0
424.4466933795484	0.8176254000281915	2	49	1032176.015	93.75	0.8451864999951795	2	0
425.26431877957657	0.8184853999409825	2	49	1032176.741	100	0.7539612000109628	1	0
426.08280417951755	0.8192560999887064	2	49	1032177.656	87.5	0.8501695	2	0
426.90206027950626	0.8162077000597492	2	49	1032178.449	93.75	0.8244489000644535	2	0
427.718268	0.8147440999746323	2	49	1032179.661	43.75	1.2196507999906316	2	0
428.53301207954064	0.8136941000120714	2	49	1032180.144	81.25	0.8879069000249729	2	0
429.3467061795527	0.8138160000089556	2	49	1032181.176	56.25	1.1063257999485359	2	0
430.16052217956167	0.8130015999777243	2	0	0	0	0	0	0
430.9735237795394	0.8183802	1	49	1032182.292	81.25	0.5959261000389233	1	0
431.79190397949424	0.8214480000315234	2	0	0	0	0	0	0
432.61335197952576	0.8148934000637382	2	49	1032184.038	93.75	0.7017616999801248	1	0
433.4282453795895	0.8158583999611437	2	49	1032184.84	93.75	0.6888528	1	0
434.24410377955064	0.8268750000279397	1	49	1032185.311	50	0.34432859998196363	1	0
435.0709787795786	0.8122641999507323	2	49	1032186.995	43.75	1.2013142999494448	2	0
435.8832429795293	0.8117085000267252	2	49	1032187.464	87.5	0.8583875000476837	2	0
436.69495147955604	0.8181976999621838	2	49	1032188.284	87.5	0.8662885000230744	2	0
437.5131491795182	0.8222585000330582	2	49	1032189.396	50	1.160173000069335	2	0
438.3354076795513	0.8161357	2	49	1032189.936	87.5	0.8780300000216812	2	0
439.15154337952845	0.8180544000351802	2	49	1032191.073	43.75	1.1988625000230968	2	0
439.9695977795636	0.8094380999682471	2	49	1032191.528	87.5	0.8356911	2	0
440.7790358795319	0.8149478000123054	1	0	0	0	0	0	0
441.5939836795442	0.8113948999671265	2	49	1032193.027	93.75	0.7104523000307381	1	0
442.4053785795113	0.8137420000275597	2	49	1032193.966	87.5	0.8379946000641212	2	0
443.21912057953887	0.8104520000051707	2	49	1032194.875	75	0.9333246999885887	2	0
444.02957257954404	0.8089560000225902	2	49	1032195.732	75	0.9798517000162974	2	0
444.8385285795666	0.8183076999848709	2	49	1032196.306	100	0.7449226999888197	1	0
445.6568362795515	0.8137603999348357	2	49	1032197.423	62.5	1.0438188000116497	2	0
446.47059667948633	0.8176463000709191	2	49	1032198.216	68.75	1.022874	2	0
447.28824297955725	0.8132813000120223	2	49	1032199.197	50	1.1863955999724567	2	0
448.1015242795693	0.8237361999927089	2	49	1032199.99	50	1.1660960000008345	2	0
448.9252605	0.8144311000360176	2	49	1032200.715	62.5	1.067425400018692	2	0
449.7396916	0.8147173000033945	2	49	1032201.163	93.75	0.7009427999146283	1	0
450.5544088796014	0.818263	2	49	1032202.004	93.75	0.7265994999324903	1	0
451.37267187959515	0.8182452999753878	2	49	1032203.034	81.25	0.9388627998996526	2	0
452.19091717957053	0.8226023999741301	2	49	1032203.637	93.75	0.7229078999953344	1	0
453.01351957954466	0.8147377000423148	2	49	1032204.41	87.5	0.6733036000514403	1	0
453.8282573	0.8150207999860868	2	49	1032205.215	87.5	0.6634997999062762	1	0
454.64327807957307	0.8142352999420837	2	49	1032206.358	68.75	0.9915549999568611	2	0
455.45751337951515	0.8147183	2	49	1032207.207	68.75	1.0267308000475168	2	0
456.27223167952616	0.8150824999902397	2	49	1032208.175	50	1.1797454999759793	2	0
457.0873141795164	0.8147721000714228	2	49	1032208.869	62.5	1.0585989999817684	2	0
457.9020862795878	0.8147636000066996	1	49	1032209.343	93.75	0.7178268	1	0
458.7168498795945	0.8098381999880075	2	49	1032210.238	93.75	0.7985799999441952	2	0
459.5266880795825	0.8131762999109924	1	49	1032211.205	75	0.9551495	2	0
460.3398643794935	0.8253785000415519	2	49	1032211.786	93.75	0.7231163000687957	1	0
461.16524287953507	0.8200466999551281	2	49	1032212.605	93.75	0.7165967000182718	1	0
461.9852895794902	0.8187214001081884	2	49	1032213.561	87.5	0.8528041000245139	2	0
462.8040109795984	0.8220048999646679	2	49	1032214.38	87.5	0.8531006999546662	2	0
463.62601587956306	0.8146674999734387	1	0	0	0	0	0	0
464.4406833795365	0.8088958	2	49	1032215.974	93.75	0.8105741000035778	2	0
465.24957917956635	0.8151633000234142	2	49	1032217.005	68.75	1.0325898	2	0
466.06474247958977	0.8112538999412209	2	49	1032217.877	56.25	1.089237799984403	2	0
466.8759964	0.8083642000565305	2	49	1032218.701	56.25	1.1021041000494733	2	0
467.6843605795875	0.8189779999665916	2	49	1032219.104	93.75	0.6967405999312177	1	0
468.5033385795541	0.8151684999465942	2	49	1032220.188	75	0.9613579	2	0
469.3185070795007	0.8115386000135913	2	49	1032220.915	87.5	0.8741346000460908	2	0
470.1300456795143	0.8144784000469372	2	49	1032221.717	87.5	0.8636775000486523	2	0
470.94452407956123	0.8202877999283373	1	0	0	0	0	0	0
471.76481187948957	0.8140938000287861	2	49	1032223.167	87.5	0.6796642	1	0
472.57890567951836	0.8166413999861106	1	0	0	0	0	0	0
473.39554707950447	0.8172725000185892	2	49	1032224.835	93.75	0.7168864000122994	1	0
474.21281957952306	0.8152125000488013	2	49	1032225.82	87.5	0.8846863000653684	2	0
475.02803207957186	0.8117531000170857	2	49	1032226.57	93.75	0.8193495000014082	2	0
475.83978517958894	0.8178691999055445	2	49	1032227.356	93.75	0.7935555999865755	2	0
476.6576543794945	0.8167758	2	49	1032227.915	75	0.5347860000329092	1	0
477.47443017957266	0.8212362999329343	2	49	1032229.23	68.75	1.0330004999414086	2	0
478.2956664795056	0.8225891999900341	2	49	1032229.699	87.5	0.6807941000442952	1	0
479.11825567949563	0.8130557000404224	2	49	1032230.575	100	0.7343654000433162	1	0
479.93131137953606	0.8183021	2	49	1032231.472	93.75	0.8179437	2	0
480.7496134795947	0.8135978999780491	2	49	1032232.28	93.75	0.8071556	2	0
481.56321137957275	0.8146665999665856	2	49	1032233.296	68.75	1.0103608999634162	2	0
482.37787797953933	0.8184135999763384	2	49	1032233.932	93.75	0.8309216999914497	2	0
483.1962915795157	0.8223135999869555	2	49	1032234.801	87.5	0.8814808999886736	2	0
484.01860517950263	0.8183575000148267	2	49	1032235.453	93.75	0.7111290000611916	1	0
484.83696267951746	0.8177507	1	49	1032236.279	93.75	0.7187567000510171	1	0
485.6547133795684	0.8157924999250099	2	49	1032237.434	62.5	1.0563524999888614	2	0
486.47050587949343	0.8172866000095382	2	49	1032237.98	93.75	0.7862121000653133	2	0
487.28779247950297	0.813717	2	49	1032238.867	87.5	0.8559196999995038	2	0
488.1015095	0.8084820000221953	2	49	1032239.599	100	0.7743525999831036	1	0
488.9099914795952	0.8138693999499083	2	49	1032240.449	93.75	0.8158803998958319	2	0
489.7238608795451	0.8181002	2	49	1032241.612	50	1.164959599962458	2	0
490.5419610795798	0.8163529000012204	2	49	1032242.207	75	0.9420886000152677	2	0
491.358314	0.8126981999957934	2	49	1032242.968	81.25	0.8865535999648273	2	0
492.1710121795768	0.8242372999666259	2	49	1032243.77	87.5	0.8759371999185532	2	0
492.9952494795434	0.8215025	2	49	1032244.896	50	1.1777058000443503	2	0
493.81675197952427	0.8091437000548467	2	49	1032245.441	81.25	0.9013344	2	0
494.6258956795791	0.8123542999383062	2	49	1032246.576	43.75	1.2272036999929696	2	0
495.4382499795174	0.8145824000239372	2	49	1032247.302	50	1.1407651000190526	2	0
496.25283237954136	0.8119739	2	0	0	0	0	0	0
497.0648062794935	0.8140886	2	49	1032248.547	100	0.7598580000922084	1	0
497.8788948795991	0.8187549998983741	2	49	1032249.423	93.75	0.8211016	2	0
498.6976498794975	0.8109662000788376	2	49	1032250.34	81.25	0.9194501000456512	2	0
499.5086160795763	0.8228999999118969	2	49	1032251.125	87.5	0.8934622999513522	2	0
500.3315160794882	0.8174117000307888	2	49	1032251.834	100	0.779484	1	0
501.1489278	0.8213142000604421	2	49	1032252.779	81.25	0.9076814000727609	2	0
501.97024197957944	0.8134065999183804	2	49	1032253.496	93.75	0.8032481999834999	2	0
502.7836485794978	0.8075378000503406	1	0	0	0	0	0	0
503.59118637954816	0.8222722000209615	2	49	1032254.717	56.25	0.4029121999628842	1	0
504.4134585795691	0.8141208000015467	2	49	1032255.493	50	0.3566925999475643	1	0
505.22757937957067	0.8141276999376714	2	49	1032256.797	87.5	0.8466948	2	0
506.04170707950834	0.8113957000896335	2	49	1032257.625	87.5	0.8608385000843555	2	0
506.8531028	0.8186844999436289	2	49	1032258.498	81.25	0.9221526999026537	2	0
507.6717872795416	0.8164123999886215	2	49	1032259.453	62.5	1.0585724000120535	2	0
508.4881996795302	0.8126093000173569	2	49	1032260.328	56.25	1.1166976	2	0
509.3008089795476	0.8181967999553308	1	0	0	0	0	0	0
510.1190057795029	n/a	0	49	1032261.419	75	0.5774111000355333	1	0