onset	duration	cue	constant1	timestamp	stimulus_coherence	response_time	response	constant2
20.824313289485872	0.8173676999285817	2	49	2161648.008	31.25	1.327284200116992	2	0
21.641680989414454	0.8207672000862658	2	49	2161648.336	93.75	0.8382564000785351	2	0
22.46244818950072	0.8154465	2	49	2161648.964	87.5	0.6453128000721335	1	0
23.277894689235836	0.8164893	2	49	2161649.879	100	0.7447869000025094	1	0
24.094383989460766	0.8107345998287201	2	49	2161650.767	93.75	0.8164471997879446	2	0
24.905118589289486	0.8173436000943184	1	49	2161651.307	75	0.5457466002553701	1	0
25.722462189383805	0.8212986001744866	2	49	2161652.632	62.5	1.0536246998235583	2	0
26.54376078955829	0.8163476996123791	1	0	0	0	0	0	0
27.36010848917067	0.817187	2	49	2161654.056	87.5	0.8399996003136039	2	0
28.177295489236712	0.8124410002492368	2	49	2161654.723	93.75	0.6896187	1	0
28.98973648948595	0.8186169001273811	2	49	2161655.491	87.5	0.6452383999712765	1	0
29.80835338961333	0.8134580999612808	2	49	2161656.456	93.75	0.7917912998236716	2	0
30.62181148957461	0.8188606998883188	2	49	2161657.388	81.25	0.9102549999952316	2	0
31.44067218946293	0.8207580000162125	2	49	2161658.098	93.75	0.8013323000632226	2	0
32.26143018947914	0.8173169000074267	2	49	2161659.144	68.75	1.0258876997977495	2	0
33.07874708948657	0.8132648998871446	2	49	2161659.714	100	0.7794324001297355	1	0
33.892011989373714	0.8111614999361336	2	49	2161660.599	87.5	0.8504094001837075	2	0
34.70317348930985	0.8298243000172079	2	49	2161661.171	81.25	0.6112673999741673	1	0
35.532997789327055	0.8173477998934686	2	49	2161661.764	50	0.3751552002504468	1	0
36.350345589220524	0.8180839000269771	2	49	2161662.689	68.75	0.4827370001003146	1	0
37.16842949	0.8144457000307739	2	49	2161663.702	87.5	0.6777757001109421	1	0
37.982875189278275	0.8137090001255274	2	49	2161664.639	93.75	0.8003024002537131	2	0
38.79658419	0.8198413	2	49	2161665.7	68.75	1.0476505002006888	2	0
39.61642548954114	0.8179802000522614	2	49	2161666.257	100	0.7839382998645306	1	0
40.434405689593405	0.8142448998987675	2	49	2161667.144	87.5	0.8529412997886539	2	0
41.24865058949217	0.8126379000023007	2	49	2161668.083	75	0.9778645997866988	2	0
42.06128848949447	0.8180971001274884	2	49	2161668.892	75	0.9741328000091016	2	0
42.87938558962196	0.8166962997056544	2	49	2161669.584	87.5	0.8480261997319758	2	0
43.696081889327615	0.8179684998467565	2	49	2161670.396	87.5	0.8432674002833664	2	0
44.51405038917437	0.8291816003620625	2	49	2161671.07	93.75	0.6995795001275837	1	0
45.343231989536434	0.8209118000231683	2	49	2161671.917	93.75	0.7174024	1	0
46.16414379	0.8168990998528898	2	49	2161672.777	100	0.7568443999625742	1	0
46.98104288941249	0.8159619998186827	1	49	2161673.516	87.5	0.6791687998920679	1	0
47.797004889231175	0.8086328003555536	2	49	2161674.752	56.25	1.0990112000145018	2	0
48.60563768958673	0.8028208999894559	2	49	2161675.513	62.5	1.0510288998484612	2	0
49.408458589576185	0.8160397997125983	2	49	2161676.25	75	0.9855581000447273	2	0
50.22449838928878	0.8219320001080632	2	49	2161676.846	100	0.7651605000719428	1	0
51.046430389396846	0.8182466002181172	2	49	2161677.187	43.75	0.2841541999951005	1	0
51.86467698961496	0.8221666999161243	2	49	2161678.357	81.25	0.6360456	1	0
52.68684368953109	0.8247451	2	49	2161679.283	100	0.7399623999372125	1	0
53.51158878952265	0.8162348000332713	2	49	2161680.169	93.75	0.8008228000253439	2	0
54.32782358955592	0.8199146999977529	2	49	2161681.032	87.5	0.8479142999276519	2	0
55.14773828955367	0.8195491996593773	2	0	0	0	0	0	0
55.96728748921305	0.8130559003911912	2	49	2161682.803	75	0.9794494002126157	2	0
56.78034338960424	0.8110995995812118	2	49	2161683.509	87.5	0.8727393997833133	2	0
57.59144298918545	0.8163145002909005	2	49	2161684.219	100	0.7714529000222683	1	0
58.40775748947635	0.8095280998386443	2	49	2161685.004	100	0.7400930998846889	1	0
59.21728559	0.8155125002376735	1	49	2161685.911	87.5	0.8378359000198543	2	0
60.03279808955267	0.8159539	2	49	2161687.129	43.75	1.240191400051117	2	0
60.84875198919326	0.8195683001540601	2	49	2161687.699	75	0.9942465000785887	2	0
61.66832028934732	0.8206784999929368	2	49	2161688.256	93.75	0.7317289002239704	1	0
62.48899878934026	0.8162932000122964	2	49	2161689.075	93.75	0.7301147999241948	1	0
63.305291989352554	0.8204736998304725	2	49	2161689.771	81.25	0.6090577999129891	1	0
64.12576568918303	0.8209759001620114	2	49	2161690.831	87.5	0.8494702000170946	2	0
64.94674158934504	0.8132802001200616	2	49	2161691.674	87.5	0.8707074001431465	2	0
65.76002179	0.8144046999514103	2	49	2161692.619	68.75	1.0023182998411357	2	0
66.57442648941651	0.8088682000525296	2	49	2161693.282	87.5	0.8517052000388503	2	0
67.38329468946904	0.8298586998134851	2	49	2161694.438	50	1.1989139998331666	2	0
68.21315338928252	0.8195659001357853	2	49	2161694.992	81.25	0.9221799001097679	2	0
69.03271928941831	0.8148395	2	49	2161695.746	87.5	0.8567663999274373	2	0
69.84755878942087	0.8209027000702918	2	49	2161696.485	100	0.7811102997511625	1	0
70.66846148949116	0.8173912	2	49	2161697.261	93.75	0.7359527	1	0
71.48585268948227	0.8109657997265458	2	49	2161698.034	93.75	0.6923587997443974	1	0
72.29681848920882	0.8258139002136886	2	49	2161698.919	100	0.765816	1	0
73.12263239	0.8219237998127937	2	49	2161699.82	93.75	0.8407693998888135	2	0
73.94455619	0.8176257000304759	2	49	2161700.59	93.75	0.7889920002780855	2	0
74.76218188926578	0.8153133001178503	2	49	2161701.721	56.25	1.1024835999123752	2	0
75.57749518938363	0.8164355	2	49	2161702.148	93.75	0.7139793001115322	1	0
76.39393068943173	0.8136799	2	49	2161702.98	93.75	0.7294839997775853	1	0
77.20761058945209	0.8160092998296022	2	49	2161703.708	87.5	0.6439164998009801	1	0
78.02361988928169	0.8188669001683593	2	49	2161704.563	87.5	0.6829476002603769	1	0
78.84248678945005	0.8150716000236571	2	49	2161705.261	75	0.5622247997671366	1	0
79.65755839	0.8191961999982595	2	49	2161706.12	81.25	0.6059681000187993	1	0
80.47675458947197	0.8140209997072816	2	49	2161707.109	100	0.7757382998242974	1	0
81.29077558917925	0.8240039004012942	2	49	2161707.984	93.75	0.8369732000865042	2	0
82.11477948958054	0.8137250998988748	2	49	2161708.617	87.5	0.6458063996396959	1	0
82.92850458947942	0.8230681	2	49	2161709.728	81.25	0.9432012997567654	2	0
83.75157268950716	0.8162062996998429	2	49	2161710.432	93.75	0.8245955999009311	2	0
84.56777899	0.8182181003503501	2	49	2161711.293	87.5	0.8688173000700772	2	0
85.38599708955735	0.8177685998380184	1	49	2161712.245	68.75	1.0028147	2	0
86.20376568939537	0.8184030000120401	2	49	2161712.928	87.5	0.8675651	2	0
87.02216868940741	0.8151669	2	49	2161713.576	93.75	0.6978834997862577	1	0
87.83733558934182	0.8107393002137542	1	49	2161714.258	75	0.5642760000191629	1	0
88.64807488955557	0.8112794999033213	2	49	2161715.227	93.75	0.7221881998702884	1	0
89.45935439	0.8160212999209762	1	49	2161716.255	75	0.9392238999716938	2	0
90.27537568937987	0.8127758000046015	2	49	2161717.102	75	0.9706179001368582	2	0
91.08815148938447	0.8161794999614358	2	49	2161717.982	68.75	1.0377944000065327	2	0
91.90433098934591	0.8202945999801159	2	0	0	0	0	0	0
92.72462558932602	0.8129563	2	49	2161719.442	87.5	0.8609826001338661	2	0
93.53758188942447	0.8168580001220107	1	0	0	0	0	0	0
94.35443988954648	0.8222603998146951	2	49	2161720.487	43.75	0.2766785998828709	1	0
95.17670028936118	0.8250580998137593	1	49	2161721.49	62.5	0.4575291001237929	1	0
96.00175838917494	0.8176235002465546	2	49	2161722.194	50	0.33643640018999577	1	0
96.81938188942149	0.8190843998454511	2	49	2161723.38	93.75	0.7047148998826742	1	0
97.63846628926694	0.8188102003186941	2	49	2161724.298	93.75	0.8037274000234902	2	0
98.45727648958564	0.8097224999219179	2	49	2161725.01	93.75	0.6968139996752143	1	0
99.26699898950756	0.8243156000971794	2	49	2161725.839	93.75	0.7156015997752547	1	0
100.09131458960474	0.8150593996979296	2	49	2161726.884	75	0.9360125996172428	2	0
100.90637398930266	0.8152270000427961	2	49	2161727.702	75	0.9389090999029577	2	0
101.72160098934546	0.8087919000536203	1	0	0	0	0	0	0
102.53039288939908	0.8164844000712037	2	49	2161728.926	75	0.5392386000603437	1	0
103.34687728947029	0.8228759998455644	2	49	2161730.196	75	0.9925907999277115	2	0
104.16975328931585	0.8168020001612604	1	0	0	0	0	0	0
104.98655528947711	0.8181755999103189	2	49	2161731.471	81.25	0.6281157000921667	1	0
105.80473088938743	0.8135814000852406	2	49	2161732.565	81.25	0.9039389998652041	2	0
106.61831228947267	0.8098526997491717	2	49	2161733.451	75	0.9762566001154482	2	0
107.42816498922184	0.8108090003952384	2	49	2161734.471	50	1.1867154003120959	2	0
108.23897398961708	0.8251578998751938	2	49	2161735.124	68.75	1.0288641997613013	2	0
109.06413188949227	0.8157860999926925	2	0	0	0	0	0	0
109.87991798948497	0.8145750998519361	2	49	2161736.324	81.25	0.5876171998679638	1	0
110.6944930893369	0.8192664	2	49	2161737.322	100	0.7713325000368059	1	0
111.5137594891712	0.8154496001079679	2	49	2161737.73	50	0.35996600007638335	1	0
112.32920908927917	0.8189079002477229	2	49	2161738.905	93.75	0.7195383999496698	1	0
113.1481169895269	0.816468	2	49	2161739.935	81.25	0.9301297999918461	2	0
113.96458498947322	0.8150554001331329	1	0	0	0	0	0	0
114.77964038960636	0.8142535998485982	2	49	2161741.417	100	0.7810301999561489	1	0
115.59389398945495	0.8142564999870956	2	49	2161742.172	93.75	0.7219337001442909	1	0
116.40815048944205	0.8171851998195052	2	49	2161743.09	93.75	0.8255738997831941	2	0
117.22533568926156	0.8185980003327131	2	49	2161744.239	50	1.1575580001808703	2	0
118.04393368959427	0.8193308999761939	2	0	0	0	0	0	0
118.86326458957046	0.8196467999368906	2	49	2161745.392	87.5	0.6727003999985754	1	0
119.68291138950735	0.8115296997129917	2	49	2161746.359	93.75	0.8198607000522316	2	0
120.49444108922035	0.8187922001816332	1	49	2161747.175	93.75	0.8244944	2	0
121.31323328940198	0.819026	2	49	2161748.3	56.25	1.1308570997789502	2	0
122.1322592892684	0.8143356000073254	2	0	0	0	0	0	0
122.94659488927573	0.8127220002934337	2	49	2161749.328	68.75	0.5254913000389934	1	0
123.75931688956916	0.8179452000185847	2	49	2161750.128	68.75	0.5127936	1	0
124.57726208958775	0.8147566998377442	2	49	2161751.061	81.25	0.6272324998863041	1	0
125.39201878942549	0.8203795999288559	2	49	2161751.843	81.25	0.5949790999293327	1	0
126.21239838935435	0.8307409002445638	2	49	2161752.706	81.25	0.6375756999477744	1	0
127.04313928959891	0.8396518998779356	2	49	2161753.647	93.75	0.7480032998137176	1	0
127.88279118947685	0.8297158000059426	2	49	2161754.436	93.75	0.6973140998743474	1	0
128.7125069894828	0.8265661001205444	1	49	2161755.522	75	0.9535360997542739	2	0
129.53907308960333	0.8298630998469889	2	49	2161756.581	50	1.185235499870032	2	0
130.36893618945032	0.8388380999676883	2	49	2161757.265	68.75	1.0402806997299194	2	0
131.2077743	0.8377169999293983	2	49	2161758.079	75	1.015403099823743	2	0
132.0454912893474	0.8250012001954019	1	49	2161758.8	87.5	0.8978359000757337	2	0
132.8704924895428	0.8153689997270703	2	0	0	0	0	0	0
133.68586148926988	0.8352100001648068	2	49	2161760.336	100	0.7943432000465691	1	0
134.5210714894347	0.8221181998960674	2	49	2161761.242	87.5	0.8641768000088632	2	0
135.34318968933076	0.8269424000754952	2	49	2161762.096	87.5	0.8962758001871407	2	0
136.17013208940625	0.8374327998608351	2	49	2161763.273	43.75	1.2462392998859286	2	0
137.0075648892671	0.8385209003463387	2	49	2161763.746	87.5	0.8818411002866924	2	0
137.84608578961343	0.8379976996220648	1	49	2161764.294	75	0.5912372996099293	1	0
138.6840834892355	0.8380964	2	49	2161765.311	100	0.7701788	1	0
139.5221798894927	0.8385805999860168	2	49	2161766.129	93.75	0.7504761000163853	1	0
140.3607604894787	0.8390139997936785	2	49	2161767.159	81.25	0.9416314	2	0
141.1997744892724	0.8385449000634253	1	49	2161767.693	81.25	0.6368380002677441	1	0
142.0383193893358	0.8385315001942217	2	49	2161768.927	68.75	1.032096200156957	2	0
142.87685088953003	0.8372792997397482	1	0	0	0	0	0	0
143.71413018926978	0.8380364999175072	2	49	2161769.888	43.75	0.3177085001952946	1	0
144.5521666891873	0.8376032002270222	2	49	2161770.975	75	0.5663968003354967	1	0
145.3897698894143	0.8374191001057625	2	49	2161771.962	93.75	0.7158845998346806	1	0
146.22718898952007	0.8383913999423385	2	49	2161773.052	81.25	0.9685880998149514	2	0
147.0655803894624	0.8380011999979615	2	49	2161773.898	75	0.9761524	2	0
147.90358158946037	0.8375017000362277	2	49	2161774.794	68.75	1.0342558999545872	2	0
148.7410832894966	0.8372303	2	49	2161775.511	81.25	0.9137892001308501	2	0
149.57831358956173	0.8354438999667764	2	49	2161776.397	75	0.9623108999803662	2	0
150.4137574895285	0.8399428999982774	2	49	2161777.261	75	0.9909946	2	0
151.25370038952678	0.8399260998703539	2	49	2161778.156	68.75	1.0460505997762084	2	0
152.09362648939714	0.8390457001514733	2	49	2161778.937	75	0.9872018001042306	2	0
152.9326721895486	0.8375235	2	49	2161779.731	81.25	0.9421312999911606	2	0
153.7701957	0.8383125998079777	2	49	2161780.399	100	0.7726257997564971	1	0
154.60850828932598	0.8387429001741111	1	49	2161781.207	93.75	0.7424949002452195	1	0
155.4472511895001	0.8382793	2	49	2161781.971	87.5	0.6679301997646689	1	0
156.28553048940375	0.8408889998681843	2	49	2161783.019	87.5	0.8773877997882664	2	0
157.12641948927194	0.8390776002779603	2	49	2161783.708	93.75	0.7256464003585279	1	0
157.9654970895499	0.8401998998597264	2	49	2161784.492	87.5	0.6704583000391722	1	0
158.80569698940963	0.839071	2	49	2161785.544	87.5	0.8823649999685585	2	0
159.6447679894045	0.8386963000521064	2	49	2161786.442	81.25	0.9409472001716495	2	0
160.4834642894566	0.8167868000455201	2	49	2161787.129	93.75	0.7889090999960899	2	0
161.30025108950213	0.8254570998251438	2	49	2161787.917	100	0.7609339999035001	1	0
162.12570818932727	0.8373509	2	49	2161788.953	75	0.970599	2	0
162.96305908961222	0.8241835995577276	2	49	2161789.822	75	1.0030445996671915	2	0
163.78724268916994	0.8177206004038453	1	49	2161790.55	81.25	0.9061031001619995	2	0
164.6049632895738	0.8182942997664213	2	49	2161791.395	81.25	0.9336768998764455	2	0
165.4232575893402	0.8148966999724507	2	49	2161792.307	68.75	1.0272404002025723	2	0
166.23815428931266	0.8292883	2	49	2161792.992	87.5	0.8971775001846254	2	0
167.06744258943945	0.8273666999302804	2	49	2161793.885	75	0.9612433	2	0
167.89480928936973	0.8408530000597239	2	49	2161794.639	87.5	0.8875258998014033	2	0
168.73566228942946	0.8264752	2	49	2161795.299	93.75	0.7066192999482155	1	0
169.5621374892071	0.8163041002117097	2	49	2161796.123	93.75	0.7046064003370702	1	0
170.3784415894188	0.8171291998587549	2	49	2161797.02	100	0.7854667999781668	1	0
171.19557078927755	0.8227051999419928	2	49	2161797.772	93.75	0.7198660001158714	1	0
172.01827598921955	0.8269669003784657	2	49	2161798.475	81.25	0.6002155002206564	1	0
172.8452429	0.8285884996876121	2	49	2161799.103	56.25	0.4013069998472929	1	0
173.67383138928562	0.8213232001289725	2	49	2161800.027	68.75	0.49681210005655885	1	0
174.4951545894146	0.8166403998620808	1	49	2161800.836	68.75	0.4844219000078738	1	0
175.31179498927668	0.8227086002007127	2	49	2161801.853	87.5	0.6851868000812829	1	0
176.1345035894774	0.8197427000850439	2	49	2161803.029	68.75	1.0380488997325301	2	0
176.95424628956243	0.8166473000310361	2	49	2161803.906	56.25	1.0954951997846365	2	0
177.77089358959347	0.8117173998616636	2	49	2161804.582	75	0.954879	2	0
178.58261098945513	0.8176221000030637	2	49	2161805.547	56.25	1.1080745998769999	2	0
179.4002330894582	0.8202514001168311	2	49	2161806.403	56.25	1.1465822998434305	2	0
180.22048448957503	0.8314121998846531	2	49	2161807.052	75	0.9753781999461353	2	0
181.05189668945968	0.8184238001704216	2	0	0	0	0	0	0
181.8703204896301	0.8202258	2	49	2161808.632	81.25	0.9055720996111631	2	0
182.6905463	0.8228754000738263	2	49	2161809.51	75	0.9636756996624172	2	0
183.51342168962583	0.8168984	2	49	2161810.168	93.75	0.7979467995464802	2	0
184.3303200895898	0.8149113999679685	2	49	2161811.05	87.5	0.8633871995843947	2	0
185.14523148955777	0.8241301998496056	2	49	2161812.071	62.5	1.0697905998677015	2	0
185.96936168940738	0.820618	2	49	2161812.933	56.25	1.107524000108242	2	0
186.78997968928888	0.8194695999845862	2	0	0	0	0	0	0
187.60944928927347	0.8268594001419842	2	49	2161814.042	75	0.5758519000373781	1	0
188.43630868941545	0.8214793000370264	2	49	2161815.111	93.75	0.8183838999830186	2	0
189.25778798945248	0.8257695999927819	2	49	2161816.064	75	0.9496239	2	0
190.08355758944526	0.8167844000272453	2	49	2161817.277	31.25	1.3376476000994444	2	0
190.9003419894725	0.8164030998013914	1	0	0	0	0	0	0
191.7167450892739	0.8286147001199424	2	49	2161818.614	68.75	1.0407265000976622	2	0
192.54535978939384	0.8147840998135507	2	49	2161819.383	75	0.9818581999279559	2	0
193.3601438892074	0.8128728000447154	2	49	2161820.066	87.5	0.8493293	2	0
194.1730166892521	0.8200407000258565	2	49	2161820.873	87.5	0.8441427000798285	2	0
194.99305738927796	0.8235047003254294	1	0	0	0	0	0	0
195.8165620896034	0.8238023999147117	2	49	2161822.56	87.5	0.8870476000010967	2	0
196.6403644895181	0.8169722999446094	1	0	0	0	0	0	0
197.45733678946272	0.8186910999938846	2	49	2161824.14	93.75	0.8264276999980211	2	0
198.2760278894566	0.8187698000110686	2	49	2161825.19	62.5	1.057333500124514	2	0
199.09479768946767	0.8322478998452425	2	49	2161825.818	87.5	0.8665835997089744	2	0
199.9270455893129	0.8338635000400245	1	0	0	0	0	0	0
200.76090908935294	0.8329520998522639	2	49	2161827.512	87.5	0.8946161000058055	2	0
201.5938611892052	0.8418340003117919	2	49	2161828.285	93.75	0.8351174001581967	2	0
202.4356952	0.8386657000519335	2	49	2161829.048	100	0.7558093001134694	1	0
203.27436088956892	0.8379583000205457	2	49	2161829.972	93.75	0.8413296998478472	2	0
204.11231918958947	0.8393576997332275	2	49	2161830.947	75	0.9783051996491849	2	0
204.9516768893227	0.8363609001971781	1	49	2161831.763	81.25	0.9549226	2	0
205.78803778951988	0.8365032998844981	1	0	0	0	0	0	0
206.62454108940437	0.8367289998568594	2	49	2161833.493	75	1.012028300203383	2	0
207.46127008926123	0.8390407003462315	2	49	2161834.486	56.25	1.1682897000573575	2	0
208.30031078960747	0.8417455996386707	2	0	0	0	0	0	0
209.14205638924614	0.8291774000972509	2	49	2161835.506	68.75	0.5076476000249386	1	0
209.9712337893434	0.8214742001146078	2	49	2161836.48	87.5	0.6525484998710454	1	0
210.792708	0.8142193998210132	2	49	2161837.334	93.75	0.6852186997421086	1	0
211.6069274	0.8183579002507031	1	49	2161838.135	87.5	0.6719855000264943	1	0
212.4252852895297	0.8173827999271452	2	0	0	0	0	0	0
213.24266808945686	0.8119894000701606	2	49	2161839.587	68.75	0.48841380001977086	1	0
214.05465748952702	0.8279042998328805	2	0	0	0	0	0	0
214.8825617893599	0.8234271	2	49	2161841.654	81.25	0.9155013998970389	2	0
215.7059888895601	0.8208705997094512	2	0	0	0	0	0	0
216.52685948926955	0.8213041	2	49	2161843.03	87.5	0.6472909	1	0
217.3481635893695	0.8218629998154938	2	49	2161844.127	81.25	0.9228059002198279	2	0
218.1700266	0.8182006003335118	2	0	0	0	0	0	0
218.9882271895185	0.8228726997040212	2	49	2161845.752	81.25	0.9076815997250378	2	0
219.81109988922253	0.8115456001833081	2	0	0	0	0	0	0
220.62264548940584	0.8106108	2	49	2161847.656	50	1.1775390999391675	2	0
221.43325628945604	0.8216299000196159	2	0	0	0	0	0	0
222.25488618947566	0.8199327001348138	2	49	2161848.55	62.5	0.43840309977531433	1	0
223.07481888961047	0.8179188999347389	2	49	2161849.341	56.25	0.41022249963134527	1	0
223.8927377895452	0.8135031997226179	2	49	2161850.294	75	0.5451350999064744	1	0
224.70624098926783	0.8127824999392033	2	49	2161851.152	81.25	0.5890395003370941	1	0
225.51902348920703	0.8086257	2	49	2161852.497	56.25	1.122132200282067	2	0
226.32764918962494	0.8142785998061299	2	0	0	0	0	0	0
227.14192778943107	0.8144601001404226	2	49	2161854.07	62.5	1.071450499817729	2	0
227.9563878895715	0.8055585999973118	2	49	2161855.021	43.75	1.2084889998659492	2	0
228.7619464895688	0.8238226999528706	2	0	0	0	0	0	0
229.58576918952167	0.8161225998774171	2	49	2161855.905	62.5	0.4634555000811815	1	0
230.4018917893991	0.8227315000258386	2	49	2161856.551	43.75	0.29262979980558157	1	0
231.22462328942493	0.8188136001117527	2	49	2161857.464	56.25	0.38264610012993217	1	0
232.04343688953668	0.8121304	2	49	2161858.226	50	0.32606770005077124	1	0
232.85556728951633	0.8263127999380231	2	49	2161859.136	56.25	0.42389919981360435	1	0
233.68188008945435	0.8167932997457683	2	49	2161860.555	68.75	1.0170821999199688	2	0
234.49867338920012	0.8223535004071891	2	49	2161861.074	93.75	0.7190885003656149	1	0
235.3210268896073	0.8307084999978542	2	49	2161862.516	31.25	1.3390047997236252	2	0
236.15173538960516	0.8221282996237278	1	0	0	0	0	0	0
236.9738636892289	0.8130818	2	49	2161863.752	81.25	0.9222492999397218	2	0
237.78694548923522	0.8147041001357138	2	49	2161864.768	56.25	1.1249373001046479	2	0
238.60164958937094	0.8274079002439976	2	0	0	0	0	0	0
239.42905748961493	0.8115206998772919	2	49	2161865.993	93.75	0.7076135999523103	1	0
240.24057818949223	0.8245568997226655	2	49	2161866.782	87.5	0.6850282996892929	1	0
241.0651350892149	0.8327656001783907	2	49	2161867.488	75	0.5664941002614796	1	0
241.89790068939328	0.8188320999033749	2	49	2161868.519	100	0.7644397001713514	1	0
242.71673278929666	0.8246563002467155	2	49	2161869.482	81.25	0.9090217002667487	2	0
243.54138908954337	0.8261370998807251	2	49	2161870.149	100	0.751416	1	0
244.3675261894241	0.8176667001098394	2	49	2161870.962	100	0.7383326999843121	1	0
245.18519288953394	0.8124506999738514	2	49	2161872.022	75	0.9807819998823106	2	0
245.9976435895078	0.8205369999632239	2	49	2161872.852	68.75	0.9982671998441219	2	0
246.8181806	0.8167722998186946	2	49	2161873.685	68.75	1.0108161997050047	2	0
247.6349528892897	0.8186912001110613	2	49	2161874.478	75	0.9871135000139475	2	0
248.45364408940077	0.8176985001191497	2	49	2161875.247	81.25	0.9374695001170039	2	0
249.27134258951992	0.8163397000171244	2	49	2161875.982	87.5	0.8547992999665439	2	0
250.08768228953704	0.8273889999836683	2	49	2161876.832	87.5	0.8878117999993265	2	0
250.9150712895207	0.8174944999627769	2	49	2161877.694	81.25	0.9230796000920236	2	0
251.7325657894835	0.8169630998745561	2	49	2161878.714	56.25	1.125609700102359	2	0
252.54952888935804	0.8082103999331594	2	0	0	0	0	0	0
253.3577392892912	0.8190370001830161	2	49	2161879.949	93.75	0.7351824999786913	1	0
254.17677628947422	0.8131232000887394	2	49	2161880.474	62.5	0.4414045996963978	1	0
254.98989948956296	0.8182331998832524	2	49	2161881.544	93.75	0.6982689998112619	1	0
255.8081326894462	0.8275707997381687	2	49	2161882.383	93.75	0.7185431998223066	1	0
256.6357034891844	0.8192247003316879	2	49	2161883.018	68.75	0.5257503003813326	1	0
257.45492818951607	0.8099881000816822	2	49	2161884.116	93.75	0.8052805997431278	2	0
258.26491628959775	0.8163235997781157	2	49	2161884.845	93.75	0.7234672997146845	1	0
259.08123988937587	0.8197019002400339	2	49	2161885.643	93.75	0.7051251	1	0
259.9009417896159	0.8247006	2	49	2161886.444	87.5	0.6872818	1	0
260.72564238961786	0.8222037	2	49	2161887.247	87.5	0.6647962997667491	1	0
261.5478460895829	0.8274999000132084	2	49	2161888.025	81.25	0.6206282996572554	1	0
262.3753459895961	0.8140349998138845	2	49	2161889.086	87.5	0.8539923997595906	2	0
263.189381	0.8213220997713506	2	49	2161889.758	93.75	0.7120591001585126	1	0
264.01070308918133	0.8172174002975225	2	49	2161890.432	75	0.5648021004162729	1	0
264.82792048947886	0.8157146000303328	2	49	2161891.09	56.25	0.40602599969133735	1	0
265.6436350895092	0.8107257001101971	2	49	2161891.835	50	0.33480089996010065	1	0
266.4543607896194	0.8161894	2	49	2161893.332	68.75	1.0212740995921195	2	0
267.2705501895398	0.8166196998208761	1	0	0	0	0	0	0
268.08716988936067	0.8249369999393821	2	49	2161894.712	100	0.7686048001050949	1	0
268.91210688930005	0.8187915002927184	2	49	2161895.958	50	1.1900845998898149	2	0
269.73089838959277	0.8167561995796859	2	0	0	0	0	0	0
270.54765458917245	0.8200319004245102	2	49	2161896.952	75	0.5480276001617312	1	0
271.36768648959696	0.8180657997727394	1	49	2161897.788	75	0.5639955997467041	1	0
272.1857522893697	0.8198275999166071	2	49	2161899.202	50	1.1603013002313673	2	0
273.0055798892863	0.8130475003272295	2	49	2161899.87	68.75	1.0086251	2	0
273.81862738961354	0.8215942997485399	1	0	0	0	0	0	0
274.6402216893621	0.8199463002383709	2	49	2161901.277	100	0.7807387001812458	1	0
275.46016798960045	0.8178570996969938	2	49	2161902.123	93.75	0.8062112997286022	2	0
276.27802508929744	0.8180213002488017	2	49	2161902.989	93.75	0.8548132	2	0
277.09604638954625	0.8117615999653935	2	49	2161903.731	100	0.7789913997985423	1	0
277.90780798951164	0.8160065999254584	1	49	2161904.423	87.5	0.6591199999675155	1	0
278.7238145894371	0.8112092	2	49	2161905.635	62.5	1.055414800066501	2	0
279.5350237893872	0.8160847001709044	2	49	2161906.583	50	1.1918399999849498	2	0
280.3511084895581	0.8252976997755468	2	49	2161907.4	50	1.1931128	2	0
281.17640618933365	0.8158808001317084	2	49	2161908.001	75	0.9679852002300322	2	0
281.99228698946536	0.8252611998468637	2	49	2161908.962	56.25	1.1135670999065042	2	0
282.8175481893122	0.8135298	2	49	2161909.575	81.25	0.9015605999156833	2	0
283.6310779894702	0.8154470999725163	2	49	2161910.68	43.75	1.192896599881351	2	0
284.44652508944273	0.8153622997924685	1	0	0	0	0	0	0
285.2618873892352	0.8147724000737071	2	49	2161912.111	68.75	0.9932842003181577	2	0
286.0766597893089	0.8204164998605847	1	0	0	0	0	0	0
286.8970762891695	0.8190951002761722	2	49	2161913.336	75	0.5830698003992438	1	0
287.71617138944566	0.8248823001049459	2	49	2161914.314	93.75	0.7419857000932097	1	0
288.5410536895506	0.8191951997578144	2	49	2161915.153	100	0.7554480996914208	1	0
289.3602488893084	0.8145957998931408	2	49	2161916.034	93.75	0.8172261002473533	2	0
290.17484468920156	0.8142171003855765	2	49	2161917.109	62.5	1.0781192001886666	2	0
290.98906178958714	0.8174888999201357	2	49	2161918.039	50	1.193728500045836	2	0
291.8065506895073	0.8184861000627279	2	49	2161918.589	81.25	0.9259691997431219	2	0
292.6250368	0.8196038	2	49	2161919.43	75	0.9484599996358156	2	0
293.4446405894123	0.8301152000203729	1	49	2161920.501	50	1.1999357999302447	2	0
294.2747557894327	0.8210431998595595	1	0	0	0	0	0	0
295.09579898929223	0.8159993002191186	1	0	0	0	0	0	0
295.91179828951135	0.8135909996926785	2	49	2161922.833	62.5	1.0646445	2	0
296.72538928920403	0.8273785002529621	2	49	2161923.281	87.5	0.6990658002905548	1	0
297.5527678	0.8180180001072586	2	49	2161923.782	50	0.37270289985463023	1	0
298.37078578956425	0.8204819997772574	2	49	2161924.827	81.25	0.5998125998303294	1	0
299.1912677893415	0.8225459000095725	2	49	2161926.158	56.25	1.1102917999960482	2	0
300.0138136893511	0.8246152000501752	2	0	0	0	0	0	0
300.83842888940126	0.8123583002015948	2	49	2161927.497	93.75	0.8024655999615788	2	0
301.65078718960285	0.8185617	2	49	2161928.747	43.75	1.2402719999663532	2	0
302.4693488893099	0.8172225002199411	2	0	0	0	0	0	0
303.28657138952985	0.8254171996377409	2	49	2161929.891	100	0.7482690000906587	1	0
304.1119885891676	0.8183290003798902	2	49	2161930.898	81.25	0.9299394004046917	2	0
304.9303175895475	0.8181583997793496	1	0	0	0	0	0	0
305.74847598932683	0.817552	2	49	2161932.16	75	0.5554436999373138	1	0
306.56602798961103	0.8214270998723805	2	49	2161933.503	62.5	1.0808514999225736	2	0
307.3874550894834	0.8277480998076499	1	0	0	0	0	0	0
308.21520318929106	0.8177588	2	49	2161934.781	93.75	0.7099677002988756	1	0
309.0329619892873	0.8238548003137112	2	49	2161935.698	93.75	0.8088357001543045	2	0
309.8568168	0.8392582996748388	2	49	2161936.841	56.25	1.1280408999882638	2	0
310.69607508927584	0.8396578002721071	2	49	2161937.536	75	0.9839491001330316	2	0
311.53573288954794	0.8215667996555567	2	49	2161938.574	50	1.1824574996717274	2	0
312.3572996892035	0.8159152	2	0	0	0	0	0	0
313.17321488959715	0.8233808996155858	2	49	2161939.954	81.25	0.9249081998132169	2	0
313.99659578921273	0.8278961000032723	1	0	0	0	0	0	0
314.8244919	0.8354250001721084	2	49	2161941.534	93.75	0.8535319003276527	2	0
315.6599168893881	0.8377462001517415	2	49	2161942.425	87.5	0.9091504998505116	2	0
316.49766308953986	0.8343311999924481	2	49	2161943.308	81.25	0.9536091997288167	2	0
317.3319942895323	0.8389376997947693	2	49	2161944.122	81.25	0.9341341997496784	2	0
318.1709319893271	0.8314658999443054	2	49	2161944.812	100	0.7843482000753284	1	0
319.0023978892714	0.8261710000224411	2	49	2161945.71	93.75	0.8517615	2	0
319.8285688892938	0.8367614	2	49	2161946.62	81.25	0.9348611999303102	2	0
320.6653302893974	0.8294370002113283	2	49	2161947.472	81.25	0.9509081	2	0
321.4947672896087	0.8276316998526454	2	49	2161948.216	87.5	0.8654518998228014	2	0
322.32239898946136	0.8128137998282909	2	49	2161948.991	93.75	0.8118755999021232	2	0
323.13521278928965	0.8133573001250625	2	49	2161949.738	100	0.7461840999312699	1	0
323.9485700894147	0.8207795000635087	2	49	2161950.676	87.5	0.8707770998589694	2	0
324.7693495894782	0.8231313000433147	2	49	2161951.121	68.75	0.4949662000872195	1	0
325.59248088952154	0.8232701998203993	1	49	2161951.891	62.5	0.4419686999171972	1	0
326.41575108934194	0.8094068998470902	1	49	2161953.045	100	0.7730805999599397	1	0
327.22515798918903	0.8195363003760576	1	0	0	0	0	0	0
328.0446942895651	0.8221827000379562	2	49	2161954.851	75	0.9498425000347197	2	0
328.86687698960304	0.8185768998228014	2	49	2161955.515	93.75	0.7915691998787224	2	0
329.68545388942584	0.8136483	2	49	2161956.198	87.5	0.6565795000642538	1	0
330.4991021892056	0.8200051002204418	2	49	2161957.236	87.5	0.8808571002446115	2	0
331.31910728942603	0.8246268997900188	1	0	0	0	0	0	0
332.14373418921605	0.8211702001281083	2	49	2161958.997	68.75	0.9968961	2	0
332.96490438934416	0.8240596000105143	2	0	0	0	0	0	0
333.78896398935467	0.8133960999548435	2	0	0	0	0	0	0
334.6023600893095	0.8194611	2	49	2161960.944	68.75	0.4853753000497818	1	0
335.4218211895786	0.8163006999529898	2	49	2161962.317	68.75	1.0390224000439048	2	0
336.2381218895316	0.8255785997025669	2	49	2161963.238	56.25	1.143885999917984	2	0
337.0637004892342	0.8184553999453783	2	0	0	0	0	0	0
337.88215588917956	0.8175720004364848	2	49	2161964.234	68.75	0.49579420033842325	1	0
338.69972788961604	0.8189902999438345	2	49	2161965.307	100	0.7510584997944534	1	0
339.5187181895599	0.8136729998514056	2	49	2161965.934	75	0.5593389	1	0
340.3323911894113	0.8147465	2	49	2161966.642	62.5	0.45380060002207756	1	0
341.1471376894042	0.8136574001982808	2	49	2161967.875	87.5	0.8720390000380576	2	0
341.96079508960247	0.8230983996763825	2	49	2161969.062	43.75	1.2452713996171951	2	0
342.78389348927885	0.8174967002123594	2	0	0	0	0	0	0
343.6013901894912	0.8152669998817146	2	49	2161970.066	81.25	0.6088326000608504	1	0
344.4166571893729	0.8215747000649571	2	49	2161971.08	93.75	0.8073455998674035	2	0
345.2382318894379	0.8186607	2	49	2161972.133	68.75	1.0388027001172304	2	0
346.0568925892003	0.8199729002080858	1	0	0	0	0	0	0
346.8768654894084	0.8230910999700427	2	49	2161973.966	43.75	1.233324300032109	2	0
347.6999565893784	0.8172109	1	0	0	0	0	0	0
348.51716748951003	0.8253729999996722	2	49	2161974.907	68.75	0.5330908000469208	1	0
349.3425404895097	0.8378416	2	0	0	0	0	0	0
350.1803820892237	0.8172170002944767	2	49	2161976.507	62.5	0.46987370029091835	1	0
350.9975990895182	0.8180754999630153	2	49	2161977.913	62.5	1.0596225997433066	2	0
351.8156745894812	0.8197180000133812	2	49	2161978.81	56.25	1.1381779997609556	2	0
352.6353925894946	0.8228725	2	49	2161979.641	56.25	1.149232099764049	2	0
353.4582650894299	0.8158531999215484	2	49	2161980.501	50	1.1860863999463618	2	0
354.27411828935146	0.8137385998852551	2	49	2161981.301	50	1.1703074001707137	2	0
355.0878568892367	0.8383343000896275	2	0	0	0	0	0	0
355.92619118932635	0.8163685002364218	2	49	2161982.433	87.5	0.6507365	1	0
356.74255968956277	0.8250796999782324	2	49	2161983.253	87.5	0.6538948998786509	1	0
357.5676394	0.8190423999913037	2	49	2161984.252	93.75	0.8280579000711441	2	0
358.3866817895323	0.8122310996986926	2	49	2161985.187	75	0.9437083997763693	2	0
359.1989129	0.8112621000036597	2	49	2161985.979	81.25	0.9235945	2	0
360.01017498923466	0.8236499	2	49	2161986.899	68.75	1.0323393000289798	2	0
360.8338248892687	0.8168995003215969	2	49	2161987.823	56.25	1.132797900121659	2	0
361.6507243895903	0.8247046996839345	2	49	2161988.494	75	0.9871329995803535	2	0
362.47542908927426	0.8181752	2	49	2161989.564	43.75	1.2323667001910508	2	0
363.29360428918153	0.8197363000363111	2	49	2161990.183	68.75	1.033526400104165	2	0
364.11334058921784	0.8197629	2	49	2161991.032	62.5	1.0623187003657222	2	0
364.93310348922387	0.8221900002099574	2	49	2161991.727	81.25	0.9377409000881016	2	0
365.7552934894338	0.8206035001203418	2	49	2161992.639	68.75	1.0274212001822889	2	0
366.57589698955417	0.8189818998798728	2	49	2161993.387	75	0.9548976	2	0
367.39487888943404	0.8277969998307526	2	49	2161994.334	62.5	1.0829365998506546	2	0
368.2226758892648	0.8185521000996232	2	49	2161994.989	81.25	0.9103949000127614	2	0
369.0412279893644	0.8112786998972297	2	49	2161995.681	93.75	0.7835853998549283	2	0
369.85250668926165	0.8155485	2	49	2161996.399	93.75	0.6903296001255512	1	0
370.6680551893078	0.8140258002094924	2	49	2161997.047	68.75	0.5230046999640763	1	0
371.48208098951727	0.8176853000186384	2	49	2161997.941	81.25	0.6023395000956953	1	0
372.2997662895359	0.8234604997560382	2	49	2161998.486	50	0.3301828997209668	1	0
373.12322678929195	0.8144141999073327	2	49	2161999.423	62.5	0.44335540011525154	1	0
373.9376409891993	0.8202108000405133	2	49	2162000.159	50	0.36546010011807084	1	0
374.7578517892398	0.8371065002866089	2	49	2162001.733	62.5	1.1191354002803564	2	0
375.5949582895264	0.8416394996456802	2	49	2162002.605	56.25	1.1540457997471094	2	0
376.4365977891721	0.8218439002521336	2	49	2162003.534	43.75	1.2414385001175106	2	0
377.2584416894242	0.8144335001707077	1	0	0	0	0	0	0
378.0728751895949	0.8146704998798668	2	49	2162005.122	50	1.193312699906528	2	0
378.8875456894748	0.8207530998624861	2	49	2162005.697	75	0.9536238	2	0
379.7082987893373	0.8146759001538157	2	49	2162006.651	62.5	1.0859841001220047	2	0
380.5229746894911	0.8159515000879765	1	0	0	0	0	0	0
381.33892618957907	0.8130830000154674	1	49	2162008.048	87.5	0.8523299996741116	2	0
382.15200918959454	0.8240043995901942	1	0	0	0	0	0	0
382.97601358918473	0.8197545004077256	1	0	0	0	0	0	0
383.79576808959246	0.8207554998807609	2	49	2162010.466	93.75	0.8136195996776223	2	0
384.6165235894732	0.8234510999172926	1	0	0	0	0	0	0
385.4399746893905	0.8110147998668253	2	49	2162012.254	75	0.9578154999762774	2	0
386.25098948925734	0.8231633002869785	1	0	0	0	0	0	0
387.0741527895443	0.8265160000883043	2	49	2162013.932	68.75	1.0012401998974383	2	0
387.9006687896326	0.8238770999014378	2	49	2162014.578	93.75	0.8212206996977329	2	0
388.72454588953406	0.8234649	2	49	2162015.438	87.5	0.8569962000474334	2	0
389.5480107893236	0.8234979002736509	2	49	2162016.118	93.75	0.7134076999500394	1	0
390.37150868959725	0.8191793998703361	2	49	2162017.106	87.5	0.8782374	2	0
391.1906880894676	0.8119103997014463	2	49	2162018.057	68.75	1.0096577000804245	2	0
392.00259848916903	0.8331929002888501	2	49	2162018.9	68.75	1.0410734000615776	2	0
392.8357913894579	0.8208622001111507	2	49	2162019.575	87.5	0.8829117999412119	2	0
393.65665358956903	0.8118119998835027	2	49	2162020.794	37.5	1.2812666	2	0
394.46846558945253	0.8146444000303745	1	0	0	0	0	0	0
395.2831099894829	0.8128646998666227	2	49	2162022.137	68.75	0.9976355000399053	2	0
396.09597468934953	0.8204820998944342	2	49	2162022.964	68.75	1.0117611000314355	2	0
396.91645678924397	0.8218837003223598	2	49	2162023.789	68.75	1.0167491002939641	2	0
397.7383404895663	0.8220183998346329	2	49	2162024.628	68.75	1.0334826996549964	2	0
398.56035888940096	0.8138426998630166	1	0	0	0	0	0	0
399.3742016	0.8145794002339244	2	49	2162026.379	50	1.1487014000304043	2	0
400.1887809894979	0.8199208998121321	2	49	2162027.18	56.25	1.1351286000572145	2	0
401.00870188931003	0.8193502	2	0	0	0	0	0	0
401.8280520895496	0.8222420997917652	2	49	2162028.309	81.25	0.6250529000535607	1	0
402.65029418934137	0.8238995000720024	2	49	2162029.095	81.25	0.5887314002029598	1	0
403.47419368941337	0.8181652999483049	2	49	2162029.939	81.25	0.6084182001650333	1	0
404.2923589893617	0.8293059999123216	2	49	2162030.669	68.75	0.5201858002692461	1	0
405.121665	0.8094688002020121	2	49	2162032.015	62.5	1.0371464001946151	2	0
405.9311338	0.8124337000772357	2	49	2162032.891	56.25	1.1038357000797987	2	0
406.74356748955324	0.8191096000373363	2	0	0	0	0	0	0
407.5626770895906	0.8125236998312175	2	49	2162034.345	81.25	0.9265290996991098	2	0
408.3752007894218	0.8115534000098705	2	49	2162034.873	87.5	0.6420305999927223	1	0
409.18675418943167	0.8175754998810589	2	49	2162035.833	93.75	0.7904274999164045	2	0
410.0043296893127	0.8249845001846552	2	49	2162036.679	93.75	0.8188769002445042	2	0
410.8293141894974	0.8189534000121057	1	49	2162037.398	93.75	0.7127812998369336	1	0
411.6482675895095	0.8135629999451339	2	49	2162038.411	81.25	0.9060595999471843	2	0
412.4618305894546	0.8174288999289274	2	49	2162039.445	56.25	1.1266246000304818	2	0
413.27925948938355	0.8191532	2	49	2162040.114	75	0.9783228999003768	2	0
414.0984126892872	0.8159131999127567	2	0	0	0	0	0	0
414.9143259	0.8210085001774132	2	49	2162041.71	81.25	0.9391146004199982	2	0
415.7353343893774	0.8206432000733912	2	0	0	0	0	0	0
416.5559775894508	0.8208038001321256	2	49	2162042.961	75	0.5484294998459518	1	0
417.3767813895829	0.8265058998949826	2	49	2162043.798	75	0.5647595999762416	1	0
418.2032872894779	0.8140719998627901	2	49	2162044.602	75	0.5422153999097645	1	0
419.0173592893407	0.8174260002560914	2	49	2162045.488	81.25	0.6140156998299062	1	0
419.83478528959677	0.8073529996909201	2	49	2162046.373	93.75	0.6816135998815298	1	0
420.6421382892877	0.8240100000984967	2	49	2162047.168	87.5	0.6695007001981139	1	0
421.4661482893862	0.8180058998987079	2	49	2162047.962	87.5	0.6393259	1	0
422.2841541892849	0.8082983000203967	2	49	2162049.031	81.25	0.8904595002532005	2	0
423.0924524893053	0.8218886000104249	2	49	2162049.487	75	0.5383401000872254	1	0
423.9143410893157	0.8106964002363384	2	49	2162050.356	81.25	0.5853462000377476	1	0
424.72503748955205	0.8198711	2	49	2162051.076	68.75	0.4946123999543488	1	0
425.5449085892178	0.8181791002862155	2	49	2162051.95	75	0.5484168003313243	1	0
426.3630877	0.8228074996732175	2	49	2162052.768	75	0.5486178998835385	1	0
427.18589518917724	0.8226378001272678	1	49	2162053.576	75	0.5337129002436996	1	0
428.0085329893045	0.8228685	1	0	0	0	0	0	0
428.8314014892094	0.8195938002318144	2	49	2162055.595	81.25	0.9069845001213253	2	0
429.6509952894412	0.8250989997759461	1	0	0	0	0	0	0
430.47609428921714	0.8079262003302574	1	0	0	0	0	0	0
431.2840204895474	0.8208651999011636	2	49	2162058.079	81.25	0.9391822996549308	2	0
432.10488568944857	0.8150585000403225	1	49	2162059.032	62.5	1.0709782000631094	2	0
432.9199441894889	0.8103126999922097	2	0	0	0	0	0	0
433.7302568894811	0.8186594997532666	2	0	0	0	0	0	0
434.54891638923436	0.8137215003371239	2	0	0	0	0	0	0
435.3626378895715	0.8210289999842644	2	49	2162062.546	31.25	1.3274774998426437	2	0
436.18366688955575	0.8255058	2	49	2162062.878	93.75	0.8381926	2	0
437.00917268916965	0.8131813001818955	2	49	2162063.825	75	0.9598888	2	0
437.82235398935154	0.8208400001749396	2	49	2162065.014	31.25	1.3357441001571715	2	0
438.6431939895265	0.8241232000291348	1	0	0	0	0	0	0
439.4673171895556	0.8164117997512221	2	49	2162066.182	87.5	0.8588731996715069	2	0
440.28372898930684	0.8203631001524627	2	49	2162066.708	75	0.5684844	1	0
441.1040920894593	0.8119449997320771	2	49	2162067.728	100	0.7679901998490095	1	0
441.9160370891914	0.8107938002794981	2	49	2162068.752	75	0.9801663001999259	2	0
442.7268308894709	0.8172917999327183	2	49	2162069.551	75	0.9683952000923455	2	0
443.5441226894036	0.8164808000437915	1	49	2162070.372	75	0.9712505000643432	2	0
444.3606034894474	0.8196553001180291	2	49	2162071.23	68.75	1.0127483000978827	2	0
445.1802587895654	0.8141994997859001	2	49	2162072.028	75	0.9910377999767661	2	0
445.9944582893513	0.8189602000638843	2	49	2162072.95	56.25	1.0990631999447942	2	0
446.8134184894152	0.8207199000753462	2	0	0	0	0	0	0
447.63413838949054	0.8265732	2	49	2162074.084	75	0.5932801999151707	1	0
448.46071158954874	0.8213297999463975	2	49	2162075.098	100	0.7805836996994913	1	0
449.28204138949513	0.8187381997704506	2	49	2162075.92	100	0.7813450000248849	1	0
450.1007795892656	0.8154799002222717	2	49	2162076.859	81.25	0.9016972002573311	2	0
450.91625948948786	0.8235307	2	49	2162077.838	62.5	1.0653831	2	0
451.7397901895456	0.8181697996333241	2	49	2162078.691	62.5	1.0947572998702526	2	0
452.5579599891789	0.8203749000094831	2	49	2162079.554	56.25	1.1396818002685905	2	0
453.3783348891884	0.8118727002292871	1	0	0	0	0	0	0
454.1902075894177	0.8182915998622775	2	49	2162080.705	87.5	0.6584739000536501	1	0
455.0084992	0.8238881002180278	2	49	2162081.807	81.25	0.9420737000182271	2	0
455.8323873	0.8180563	2	49	2162082.559	87.5	0.8702728999778628	2	0
456.6504435893148	0.8170694001019001	2	49	2162083.397	81.25	0.8902203999459743	2	0
457.4675129894167	0.8177344999276102	2	49	2162084.529	43.75	1.2053523999638855	2	0
458.28524748934433	0.8101091999560595	2	49	2162085.003	87.5	0.8616391001269221	2	0
459.0953566893004	0.8217847999185324	2	0	0	0	0	0	0
459.9171414892189	0.8241541003808379	2	49	2162086.213	62.5	0.4391199	1	0
460.74129558959976	0.8125795000232756	2	49	2162087.039	62.5	0.4412519996985793	1	0
461.55387508962303	0.8127538999542594	1	49	2162087.884	62.5	0.4741177996620536	1	0
462.3666289895773	0.8137722997926176	2	49	2162089.154	81.25	0.9311587996780872	2	0
463.1804012893699	0.8194597000256181	2	49	2162089.962	81.25	0.9256298998370767	2	0
463.99986098939553	0.8171656001359224	2	49	2162090.534	87.5	0.6782609	1	0
464.81702658953145	0.8244721000082791	2	49	2162091.378	93.75	0.7048132000491023	1	0
465.64149868953973	0.8263445999473333	2	49	2162092.167	87.5	0.6693929000757635	1	0
466.46784328948706	0.8161141998134553	2	49	2162093.047	93.75	0.7224121000617743	1	0
467.2839574893005	0.8201627000235021	2	49	2162093.759	81.25	0.6190750002861023	1	0
468.1041202	0.8243976002559066	1	49	2162094.668	93.75	0.7071771002374589	1	0
468.9285177895799	0.8247358999215066	2	49	2162095.712	81.25	0.9269762998446822	2	0
469.75325368950143	0.8250889000482857	1	49	2162096.535	81.25	0.9258840996772051	2	0
470.5783425895497	0.8100205999799073	1	49	2162097.495	62.5	1.0602758997119963	2	0
471.3883631895296	0.8115831	1	0	0	0	0	0	0
472.1999462894164	0.8160665	2	0	0	0	0	0	0
473.0160127892159	0.8068884001113474	2	49	2162099.57	93.75	0.6981632001698017	1	0
473.82290118932724	0.8149856999516487	2	49	2162100.719	62.5	1.0402609999291599	2	0
474.6378868892789	0.8076559002511203	2	49	2162101.653	50	1.1586551000364125	2	0
475.4455428	0.8153295996598899	2	49	2162102.301	68.75	0.9996520997956395	2	0
476.2608723891899	0.8110175002366304	1	0	0	0	0	0	0
477.07188988942653	0.8191416999325156	2	49	2162103.771	87.5	0.8433468998409808	2	0
477.89103158935905	0.8134563998319209	2	49	2162104.932	50	1.184283799957484	2	0
478.70448798919097	0.8186375	2	49	2162105.803	43.75	1.2418104000389576	2	0
479.5231254892424	0.8165315999649465	2	0	0	0	0	0	0
480.3396570892073	0.8219844000414014	2	49	2162106.912	93.75	0.7157263001427054	1	0
481.1616414892487	0.8232901999726892	1	49	2162107.733	93.75	0.7147166	1	0
481.9849316892214	0.8114759000018239	2	49	2162108.615	100	0.7735896999947727	1	0
482.79640758922324	0.8142391	2	49	2162109.395	100	0.7420409000478685	1	0
483.61064668931067	0.8178496998734772	2	49	2162110.076	81.25	0.6091197999194264	1	0
484.42849638918415	0.8249570000916719	2	49	2162110.808	68.75	0.5231934003531933	1	0
485.2534533892758	0.8190203001722693	2	49	2162111.715	81.25	0.6050907000899315	1	0
486.0724736894481	0.8213543999008834	2	49	2162112.378	62.5	0.44957879977300763	1	0
486.8938281	0.8197034001350403	2	49	2162113.251	68.75	0.5010593002662063	1	0
487.7135315	0.8166940999217331	2	49	2162114.222	87.5	0.6521222000010312	1	0
488.53022558940575	0.8161181998439133	2	49	2162115.275	81.25	0.8884775000624359	2	0
489.34634378924966	0.8087871000170708	2	49	2162116.134	81.25	0.9318421999923885	2	0
490.15513088926673	0.8090055002830923	2	49	2162117.019	68.75	1.0077456999570131	2	0
490.9641363895498	0.8201979	2	49	2162117.74	81.25	0.9197446000762284	2	0
491.7843342893757	0.8167225001379848	2	49	2162118.695	62.5	1.0544412001036108	2	0
492.6010567895137	0.8203410999849439	2	49	2162119.393	81.25	0.9361038999632001	2	0
493.4213978894986	0.8094077999703586	2	49	2162120.137	87.5	0.8593922997824848	2	0
494.2308057	0.8123658997938037	2	49	2162120.877	93.75	0.7901790998876095	2	0
495.0431715892628	0.8322924999520183	2	49	2162121.829	81.25	0.9293742002919316	2	0
495.8754640892148	0.8214261000975966	2	49	2162122.727	68.75	0.9955852003768086	2	0
496.6968901893124	0.8121271999552846	2	49	2162123.608	62.5	1.0551160001195967	2	0
497.5090173892677	0.8186441999860108	2	49	2162124.432	62.5	1.0662949001416564	2	0
498.3276615892537	0.8174837999977171	2	0	0	0	0	0	0
499.1451453892514	0.8159942999482155	2	49	2162125.592	81.25	0.5909250001423061	1	0
499.9611396891996	0.8167692003771663	2	49	2162126.819	68.75	1.0019124001264572	2	0
500.7779088895768	0.8206293997354805	2	49	2162127.607	75	0.9731519999913871	2	0
501.5985382893123	0.8120862999930978	2	49	2162128.605	50	1.150532899890095	2	0
502.41062458930537	0.8235916001722217	1	0	0	0	0	0	0
503.2342161894776	0.8191673001274467	2	49	2162130.445	31.25	1.3549083997495472	2	0
504.05338348960504	0.8210549997165799	1	0	0	0	0	0	0
504.8744384893216	0.8157959999516606	2	49	2162131.918	50	1.1868139002472162	2	0
505.6902344892733	0.8163479999639094	2	49	2162132.705	50	1.1580607001669705	2	0
506.5065824892372	0.82373	2	49	2162133.518	50	1.1555908001028001	2	0
507.33031248953193	0.8224170999601483	2	49	2162134.268	62.5	1.0809602998197079	2	0
508.1527295894921	0.8232819996774197	2	49	2162134.827	93.75	0.8176998998969793	2	0
508.9760115891695	0.8146320004016161	2	0	0	0	0	0	0
509.7906435895711	0.8192050997167826	2	0	0	0	0	0	0
510.6098486892879	0.8169478001073003	1	49	2162137.287	93.75	0.8204995999112725	2	0
511.4267964893952	0.8122117	2	49	2162137.986	93.75	0.7028525997884572	1	0
512.2390082	n/a	0	49	2162138.685	81.25	0.5895153000019491	1	0