onset	duration	cue	constant1	timestamp	stimulus_coherence	response_time	response	constant2
0.0860998	0.8025125999993179	2	49	150897.0645	75	0.9476663999957964	2	0
0.8886124000127893	0.8054865999729373	1	0	0	0	0	0	0
1.6940989999857266	0.8062373000138905	2	49	150898.3469	81.25	0.6221216000267304	1	0
2.500336299999617	0.8214203999959864	2	49	150899.3151	100	0.7840076000138652	1	0
3.3217566999956034	0.8163021999935154	2	49	150900.1013	100	0.7487815000058617	1	0
4.138058899989119	0.8061979000049178	2	49	150900.9891	93.75	0.8203111000184435	2	0
4.9442567999940366	0.7995307999954093	2	49	150901.7442	100	0.7691984999983106	1	0
5.743787599989446	0.8016283000179101	2	49	150902.5051	100	0.7306076000095345	1	0
6.545415900007356	0.8015255999926012	2	49	150903.2263	87.5	0.6501824	1	0
7.346941499999957	0.8067523000063375	2	49	150904.2844	81.25	0.9067003999953158	2	0
8.153693800006295	0.8013243000023067	2	49	150904.8233	87.5	0.6389171	1	0
8.955018100008601	0.8025898000050802	2	49	150905.6395	87.5	0.6537912999920081	1	0
9.757607900013682	0.8091017999977339	2	49	150906.6213	87.5	0.8329508999886457	2	0
10.566709700011415	0.8061626999988221	2	49	150907.4026	93.75	0.8051395999791566	2	0
11.372872400010237	0.8060232999850996	2	49	150908.1961	93.75	0.7925137999991421	2	0
12.178895699995337	0.8033309000020381	2	49	150908.9081	93.75	0.698502	1	0
12.982226599997375	0.8095173999899998	2	49	150909.7903	93.75	0.7773148000123911	2	0
13.791743999987375	0.7993461000151001	2	49	150910.8137	68.75	0.9912680000124965	2	0
14.591090100002475	0.8039257999917027	2	49	150911.4218	93.75	0.8000319999991916	2	0
15.395015899994178	0.8019326	1	0	0	0	0	0	0
16.19694850000087	0.8035335000022314	2	49	150912.9517	100	0.7240104000084102	1	0
17.000482000003103	0.8059517999936361	2	49	150913.9507	81.25	0.9195154999906663	2	0
17.80643379999674	0.8054859999974724	2	49	150914.6224	93.75	0.7852955000125803	2	0
18.61191979999421	0.8042717000062112	2	49	150915.5234	81.25	0.8808137	2	0
19.416191500000423	0.8055220000096597	2	49	150916.3815	75	0.9346071000036318	2	0
20.221713500010082	0.8085306	2	49	150916.9516	93.75	0.6991450999921653	1	0
21.03024409999489	0.8013361000048462	2	49	150917.7577	93.75	0.6967755999939982	1	0
21.831580199999735	0.8039955999993253	2	49	150918.648	93.75	0.7857186000037473	2	0
22.63557579999906	0.8031034999876283	2	49	150919.7209	62.5	1.054579299991019	2	0
23.43867929998669	0.8092151000164449	2	49	150920.2508	93.75	0.7813562000228558	2	0
24.247894400003133	0.8000240999972448	2	49	150920.951	93.75	0.6724169999943115	1	0
25.047918500000378	0.7995278000016697	2	49	150921.9242	87.5	0.8455379	2	0
25.847446300002048	0.8057695000024978	2	49	150922.5359	87.5	0.6577638000017032	1	0
26.653215800004546	0.8024388999911025	2	49	150923.4628	93.75	0.7788581000058912	2	0
27.455654699995648	0.8034937999909744	2	49	150924.3219	87.5	0.8355474999989383	2	0
28.259148499986622	0.8035941999987699	2	49	150925.1738	81.25	0.8839617000194266	2	0
29.062742699985392	0.8010576000087894	2	49	150925.9923	81.25	0.8988804000255186	2	0
29.863800299994182	0.8174342999991495	2	49	150926.6831	93.75	0.7885376	2	0
30.68123459999333	0.8036647000117227	2	49	150927.5291	93.75	0.8171548999962397	2	0
31.484899300005054	0.8018414999824017	1	0	0	0	0	0	0
32.286740799987456	0.8018354000232648	2	49	150928.9481	87.5	0.6306461000058334	1	0
33.08857620001072	0.8113829	1	0	0	0	0	0	0
33.89995910000289	0.8026604999904521	2	49	150930.5049	81.25	0.5742546999827027	1	0
34.70261959999334	0.8002362000115681	2	49	150931.7049	68.75	0.9715276	2	0
35.50285580000491	0.7999130999960471	2	49	150932.2862	100	0.7526754999998957	1	0
36.302768900000956	0.8084103	2	49	150933.2291	81.25	0.8955896999977995	2	0
37.11117920000106	0.8136614999966696	2	49	150933.8653	93.75	0.7234001	1	0
37.92484069999773	0.8137673999881372	2	49	150934.7317	100	0.7761366000049748	1	0
38.73860809998587	0.8056742000044324	2	49	150935.6936	81.25	0.9242567000037525	2	0
39.5442823	0.8025959000224248	2	49	150936.1974	87.5	0.6223876000149176	1	0
40.346878200012725	0.8019882999942638	2	49	150936.9122	75	0.5345753000001423	1	0
41.14886650000699	0.8008968999783974	2	49	150937.7683	81.25	0.5887668999785092	1	0
41.949763399985386	0.8035954000079073	2	49	150938.6436	87.5	0.6631535000051372	1	0
42.75335879999329	0.7993450000067241	2	49	150939.5064	100	0.7223036999930628	1	0
43.55270380000002	0.8036105000064708	1	0	0	0	0	0	0
44.35631430000649	0.8067428999929689	2	49	150940.9399	75	0.5528636999952141	1	0
45.16305719999946	0.8078054999932647	2	49	150941.8466	87.5	0.6528713000006974	1	0
45.97086269999272	0.8056317000009585	2	49	150942.7035	93.75	0.7019564000074752	1	0
46.77649439999368	0.8000187000143342	2	49	150943.4823	93.75	0.6750631000031717	1	0
47.576513100008015	0.8119159999769181	2	49	150944.4085	93.75	0.8012732999923173	2	0
48.38842909998493	0.8166298000141978	1	0	0	0	0	0	0
49.20505889999913	0.8107037000008859	2	49	150945.9368	93.75	0.7010697000077926	1	0
50.015762600000016	0.8171389999915846	2	49	150946.9783	81.25	0.9318373999849427	2	0
50.8329016	0.8048101000022143	2	49	150947.4543	81.25	0.5907057000149507	1	0
51.637711699993815	0.8043881000194233	2	49	150948.4298	100	0.7613623999932315	1	0
52.44209980001324	0.8030896999989636	2	49	150949.1408	87.5	0.6679675999912433	1	0
53.2451895	0.8037868999817874	2	49	150950.0003	93.75	0.7244112999760546	1	0
54.04897639999399	0.8024551	2	49	150950.9214	87.5	0.8417356999998447	2	0
54.85143149999203	0.8070141000207514	2	49	150951.5838	93.75	0.7016740000108257	1	0
55.65844560001278	0.8022545999847353	2	49	150952.4637	93.75	0.7745281	2	0
56.46070019999752	0.8137513	2	49	150953.0961	81.25	0.6047118999995291	1	0
57.27445150000858	0.8062191999924835	2	49	150953.8936	81.25	0.5884742999915034	1	0
58.080670700001065	0.8005952000094112	2	49	150954.7252	81.25	0.6137953999859747	1	0
58.881265900010476	0.7998399	2	49	150955.6199	93.75	0.7079277999873739	1	0
59.681105800002115	0.8048150000104215	2	49	150956.3938	93.75	0.6819681999913882	1	0
60.485920800012536	0.8033885999757331	2	49	150957.2239	93.75	0.7072778999863658	1	0
61.28930939998827	0.8026372000167612	2	49	150958.0157	93.75	0.6957171999965794	1	0
62.09194660000503	0.8004421000077855	2	49	150958.8412	93.75	0.7185326000035275	1	0
62.892388700012816	0.8042948999791406	2	49	150959.7155	93.75	0.7923539999756031	2	0
63.69668359999196	0.7998569	2	49	150960.3812	87.5	0.6537871000182349	1	0
64.49654049999663	0.8040230000042357	2	49	150961.174	87.5	0.6467273000162095	1	0
65.30056350000086	0.8040982	2	49	150962.0141	93.75	0.6828009999881033	1	0
66.10466169999563	0.8115889999899082	2	49	150962.9271	93.75	0.7917696	2	0
66.91625069998554	0.8018593000015244	2	49	150963.5378	81.25	0.5907864000182599	1	0
67.71810999998706	0.8006422000180464	1	49	150964.31	75	0.5611376000160817	1	0
68.51875220000511	0.8065552999905776	2	49	150965.3048	100	0.7553161999967415	1	0
69.32530749999569	0.8067348999902606	2	49	150965.9534	81.25	0.5974149999965448	1	0
70.13204239998595	0.8051787000149488	2	49	150966.7281	75	0.5653081000200473	1	0
70.9372211	0.8021316	2	49	150967.656	93.75	0.6880461999971885	1	0
71.73935270000948	0.8040889999829233	2	49	150968.5102	100	0.7401180999877397	1	0
72.5434417	0.8133038000087254	1	49	150969.385	93.75	0.8108811000129208	2	0
73.35674550000113	0.8044853000028525	2	49	150970.1592	100	0.7717538999859244	1	0
74.16123080000398	0.8071441999927629	2	49	150970.8117	81.25	0.6197162999887951	1	0
74.96837499999674	0.8020485000160988	2	49	150971.5864	81.25	0.5873031000082847	1	0
75.77042350001284	0.8046501999779139	2	49	150972.5945	93.75	0.7933413999853656	2	0
76.57507369999075	0.8114977999939583	2	49	150973.3303	93.75	0.7244721000024583	1	0
77.38657149998471	0.7999047000193968	2	49	150974.2005	93.75	0.7831695000058971	2	0
78.18647620000411	0.8014679999905638	2	49	150974.9187	93.75	0.7015356000047177	1	0
78.98794419999467	0.8044729999965057	2	49	150975.6603	87.5	0.6416287000174634	1	0
79.79241719999118	0.8114711999951396	2	49	150976.4554	87.5	0.6322660000005271	1	0
80.60388839998632	0.8046180000237655	2	49	150977.3675	100	0.7329170000157319	1	0
81.40850640001008	0.8029755000025034	2	49	150978.1057	87.5	0.6664770999923348	1	0
82.21148190001259	0.8027374999946915	2	49	150978.8458	81.25	0.6036086999811232	1	0
83.01421940000728	0.8044260999886319	2	49	150979.8126	100	0.7676628	1	0
83.81864549999591	0.8052858000155538	2	49	150980.8208	75	0.9713996000064071	2	0
84.62393130001146	0.8039847999752965	2	49	150981.284	87.5	0.6293549999827519	1	0
85.42791609998676	0.8031617000233382	2	49	150982.0416	81.25	0.5829727000091225	1	0
86.2310778	0.8168050999811385	2	49	150982.989	93.75	0.727256	1	0
87.04788289999124	0.7989950000192039	2	49	150983.8336	100	0.7550132000178564	1	0
87.84687790001044	0.8003267000021879	2	49	150984.6657	93.75	0.7881274999817833	2	0
88.64720460001263	0.8041257000004407	2	49	150985.6181	75	0.9402237999893259	2	0
89.45133030001307	0.8045435999811161	1	0	0	0	0	0	0
90.25587389999419	0.8093661000020802	1	0	0	0	0	0	0
91.06523999999627	0.7992352000146639	2	49	150987.9279	87.5	0.8319638000102714	2	0
91.86447520001093	0.8025325999769848	2	49	150988.6939	93.75	0.7987477999995463	2	0
92.66700779998791	0.8036276000202633	2	49	150989.3349	87.5	0.6372152999974787	1	0
93.47063540000818	0.8035110000055283	2	49	150990.3049	93.75	0.8035788999986835	2	0
94.2741464	0.8061664999986533	1	49	150991.1349	87.5	0.8300292999774683	2	0
95.08031290001236	0.8060389999882318	1	0	0	0	0	0	0
95.88635190000059	0.8031971	2	49	150992.7432	87.5	0.8261555999924894	2	0
96.68954900000244	0.8023420000099577	2	49	150993.3273	81.25	0.6070359000004828	1	0
97.491891	0.8043701999995392	2	49	150994.1283	81.25	0.6057027999777347	1	0
98.29626120001194	0.8049492999853101	2	49	150995.0741	100	0.7470910999982152	1	0
99.10121049999725	0.8020485000160988	2	49	150995.9231	93.75	0.7912107000011019	2	0
99.90325900001335	0.8036301999818534	2	49	150996.6942	100	0.7601874999818392	1	0
100.7068891999952	0.8103938999993261	2	49	150997.5152	100	0.7776217999926303	1	0
101.51728309999453	0.8084733000141568	2	49	150998.4223	87.5	0.8742965999990702	2	0
102.32575640000869	0.8005784999986645	1	0	0	0	0	0	0
103.12633490000735	0.8017779999936465	2	49	151000.0004	87.5	0.8433113999781199	2	0
103.9281129	0.8091607000096701	2	49	151000.6648	93.75	0.7060120000096504	1	0
104.73727360001067	0.8036596000019927	1	0	0	0	0	0	0
105.54093320001266	0.8040694999799598	2	49	151002.1463	75	0.5746202000009362	1	0
106.34500269999262	0.8037914000160526	2	49	151002.9958	81.25	0.6201005000039004	1	0
107.14879410000867	0.8043935000023339	2	49	151003.8624	93.75	0.6828472999914084	1	0
107.9531876	0.8066097999981139	2	49	151004.5722	81.25	0.5883222999982536	1	0
108.75979740000912	0.8033353999780957	2	49	151005.5157	100	0.7252173000015318	1	0
109.56313279998722	0.8027774000074714	2	49	151006.3704	93.75	0.7765060000238009	2	0
110.36591019999469	0.8039931	2	49	151007.2787	81.25	0.8820561000029556	2	0
111.16990330000408	0.8149669999838807	2	49	151008.1218	81.25	0.9211359999899287	2	0
111.98487029998796	0.8011925000173505	2	49	151008.9445	75	0.9289327000151388	2	0
112.78606280000531	0.8001899999799207	2	49	151009.7196	81.25	0.9028666999947745	2	0
113.58625279998523	0.8020298	2	49	151010.5066	81.25	0.8896170000080019	2	0
114.38828260000446	0.8059437999909278	2	49	151011.3026	81.25	0.8835723999945913	2	0
115.19422639999539	0.8027714999916498	2	49	151012.099	81.25	0.8740982000017539	2	0
115.99699789998704	0.8041903999983333	2	49	151012.841	93.75	0.8132649000035599	2	0
116.80118829998537	0.8020271000277717	2	49	151013.7803	75	0.9484247000073083	2	0
117.60321540001314	0.8074433999718167	2	49	151014.2783	87.5	0.6443960999895353	1	0
118.41065879998496	0.7979341000027489	2	49	151015.3328	81.25	0.8914538000244647	2	0
119.2085928999877	0.8043017000018153	2	49	151015.9619	93.75	0.7225865000218619	1	0
120.01289459998952	0.8003227000008337	2	49	151016.8387	93.75	0.7950817000237294	2	0
120.81321729999036	0.8010328999953344	1	0	0	0	0	0	0
121.61425019998569	0.8089076000032946	2	49	151018.4008	100	0.7558152000128757	1	0
122.42315779998899	0.8034667000174522	2	49	151019.2028	100	0.7489459000062197	1	0
123.22662450000644	0.8119311000045855	2	49	151020.1378	87.5	0.8804575999965891	2	0
124.03855560001102	0.8038972	2	49	151020.9044	87.5	0.8351289999845903	2	0
124.84245279998868	0.8043444000068121	2	49	151021.7903	81.25	0.9170874000119511	2	0
125.64679719999549	0.8037214000069071	2	49	151022.4741	93.75	0.7965716999897268	2	0
126.4505186000024	0.8134397999965586	2	49	151023.399	81.25	0.9177809999964666	2	0
127.26395839999896	0.8000106000108644	2	49	151024.1189	87.5	0.8242044000071473	2	0
128.06396900000982	0.8047594999952707	1	0	0	0	0	0	0
128.8687285000051	0.8037077	2	49	151025.5582	87.5	0.6587066999927629	1	0
129.6724362	0.8036375000083353	2	49	151026.4889	93.75	0.7857984000002034	2	0
130.47607370000333	0.8089422000048216	2	49	151027.3673	87.5	0.8604634999937844	2	0
131.28501590000815	0.8052674999926239	2	49	151028.1932	81.25	0.8774219999904744	2	0
132.09028340000077	0.8094309000007343	1	0	0	0	0	0	0
132.8997143000015	0.8051283000095282	2	49	151029.7442	93.75	0.8138030999980401	2	0
133.70484260001103	0.8009744999872055	2	49	151030.3792	87.5	0.6436604999762494	1	0
134.50581709999824	0.8029564000025857	2	49	151031.2623	100	0.7257842000108212	1	0
135.30877350000083	0.8079200999927707	2	49	151032.4056	62.5	1.0660688999923877	2	0
136.1166935999936	0.8113024000194855	2	49	151032.8543	93.75	0.7069022000068799	1	0
136.92799600001308	0.8000527999829501	2	49	151033.6306	87.5	0.6718483999720775	1	0
137.72804879999603	0.8012725000153296	1	49	151034.2733	68.75	0.5145620999974199	1	0
138.52932130001136	0.7991724999737926	2	49	151035.2776	93.75	0.7175164999789558	1	0
139.32849379998515	0.8034351000096649	2	49	151036.2263	87.5	0.8670495000260416	2	0
140.13192889999482	0.8050383999943733	2	49	151037.0205	87.5	0.8578646999958437	2	0
140.9369672999892	0.8010347000090405	2	49	151037.7187	100	0.7510034000151791	1	0
141.73800199999823	0.8048159999889322	2	49	151038.4121	87.5	0.6433824000123423	1	0
142.54281799998716	0.8043591000023298	2	49	151039.3365	100	0.7629931000119541	1	0
143.3471770999895	0.8016929000150412	2	49	151040.1617	93.75	0.7837804000009783	2	0
144.14887000000454	0.8008485999889672	2	49	151040.9875	93.75	0.8079296000069007	2	0
144.9497185999935	0.8041151000070386	2	49	151041.7079	100	0.7274620000098366	1	0
145.75383370000054	0.8033663000096567	2	49	151042.5387	100	0.7541327	1	0
146.5572000000102	0.7995604999887291	2	49	151043.4232	87.5	0.8352967999817338	2	0
147.35676049999893	0.7981726000143681	2	49	151044.2579	81.25	0.8704199999920093	2	0
148.1549331000133	0.8060410999751184	2	49	151045.0236	87.5	0.8379510999948252	2	0
148.9609741999884	0.80834	2	49	151045.7453	100	0.7536510000063572	1	0
149.7693142000062	0.8047827999980655	2	49	151046.6298	87.5	0.8297543999797199	2	0
150.57409700000426	0.8039027999911923	2	49	151047.3298	93.75	0.7249619000067469	1	0
151.37799979999545	0.8027616000035778	2	49	151048.106	93.75	0.6972886	1	0
152.18076139999903	0.8125618000049144	2	49	151049.0909	87.5	0.8793776000093203	2	0
152.99332320000394	0.8033332999912091	2	49	151049.6559	87.5	0.6318988999992143	1	0
153.79665649999515	0.7993183	2	49	151050.5393	93.75	0.7119328000117093	1	0
154.5959748000023	0.8075155999977142	1	49	151051.4682	87.5	0.8415231999824755	2	0
155.4034904	0.8034273000084795	2	49	151052.5073	62.5	1.0730778999859467	2	0
156.2069177000085	0.8040208999882452	2	49	151053.2328	68.75	0.9951984999934211	2	0
157.01093859999673	0.8008071999938693	2	49	151054.2071	50	1.1654624000075273	2	0
157.8117457999906	0.8008334	2	0	0	0	0	0	0
158.61257920000935	0.8116526999801863	2	49	151055.1778	75	0.5344713999947999	1	0
159.42423189998954	0.7998402000230271	2	49	151056.244	93.75	0.7890403000055812	2	0
160.22407210001256	0.8028822999913245	2	49	151057.1079	87.5	0.8531102	2	0
161.0269544000039	0.8083730000071228	2	49	151057.9628	81.25	0.9050937999854796	2	0
161.8353274	0.8023283999937121	2	49	151058.5692	93.75	0.7031983999768272	1	0
162.63765580000472	0.8019389999972191	2	49	151059.7621	56.25	1.0937367999868002	2	0
163.43959480000194	0.8010609000048134	2	49	151060.2242	100	0.7538933999894653	1	0
164.24065570000676	0.8026509000046644	2	49	151060.9394	87.5	0.6680653999792412	1	0
165.04330660001142	0.8029834999761079	2	49	151061.9497	81.25	0.8756303999980446	2	0
165.84629009998753	0.8027279000089038	2	49	151062.6232	100	0.7461759000143502	1	0
166.64901799999643	0.8028074000030756	2	49	151063.6051	75	0.9254102999984752	2	0
167.4518253999995	0.8108676999981981	2	49	151064.2407	100	0.7581626999890432	1	0
168.2626930999977	0.8043993999890517	2	49	151065.0375	100	0.7440491000015754	1	0
169.06709249998676	0.8017145000048913	2	49	151065.9335	87.5	0.8356706000049599	2	0
169.86880699999165	0.8060070000065025	2	49	151066.7694	87.5	0.8698999	2	0
170.67481399999815	0.8019799999892712	2	49	151067.5803	81.25	0.8747514999995474	2	0
171.47679399998742	0.8010313000122551	2	49	151068.4455	75	0.9380355000030249	2	0
172.27782529999968	0.8017014999932144	2	49	151069.1589	87.5	0.8504033999925014	2	0
173.0795267999929	0.8061660999956075	1	0	0	0	0	0	0
173.8856928999885	0.8086468999972567	2	49	151070.4668	75	0.5504127	1	0
174.69433979998576	0.8032255000143778	2	0	0	0	0	0	0
175.49756530000013	0.8011235999874771	2	49	151072.1116	81.25	0.5833142999908887	1	0
176.2986888999876	0.7997549000137951	1	0	0	0	0	0	0
177.0984438000014	0.8054802	2	49	151073.6737	75	0.5445187999866903	1	0
177.90392400001292	0.8033355999796186	2	49	151074.9392	68.75	1.0045290999987628	2	0
178.70725959999254	0.8030179000052158	2	49	151075.564	87.5	0.8259879999968689	2	0
179.51027749999776	0.8063369999872521	2	49	151076.2487	93.75	0.7077523999905679	1	0
180.3166145	0.8133270000107586	2	49	151076.9668	81.25	0.6195026000204962	1	0
181.12994149999577	0.8028492000012193	2	49	151078.054	81.25	0.8933331000152975	2	0
181.93279069999699	0.8055304000154138	2	49	151078.7143	100	0.7507861999911256	1	0
182.7383211000124	0.7998029999725986	2	49	151079.5467	93.75	0.7776867999928072	2	0
183.5381241	0.8168075000285171	2	49	151080.407	87.5	0.8382081000017934	2	0
184.35493160001351	0.8070996999740601	2	49	151081.2427	87.5	0.8570270999916829	2	0
185.16203129998758	0.8082214000169188	2	49	151081.9368	100	0.7440065999981016	1	0
185.9702527000045	0.8039937999856193	1	0	0	0	0	0	0
186.7742464999901	0.8049683000135701	2	49	151083.37	75	0.5650500000047032	1	0
187.57921480000368	0.8059972999908496	1	0	0	0	0	0	0
188.38521209999453	0.8031569000158925	2	49	151084.8629	62.5	0.44697469999664463	1	0
189.18836900001043	0.8022129	2	49	151086.0764	87.5	0.8573524999956135	2	0
189.99058189999778	0.8101083000074141	1	0	0	0	0	0	0
190.8006902000052	0.8064318999822717	2	49	151087.3057	62.5	0.4743041	1	0
191.60712209998746	0.8034349	2	49	151088.5038	87.5	0.8659980000229552	2	0
192.4105569999956	0.8011505	1	0	0	0	0	0	0
193.2117075000133	0.8086678999825381	2	49	151089.884	87.5	0.6416199999803212	1	0
194.02037539999583	0.8170500000123866	2	49	151090.9991	75	0.9479976000147872	2	0
194.83742540000821	0.8037901	1	0	0	0	0	0	0
195.64121549998526	0.7998799000051804	1	49	151092.3928	93.75	0.7208883	1	0
196.44109539999045	0.8029593999963254	2	49	151093.3252	87.5	0.8533510999986902	2	0
197.24405479998677	0.8037805000203662	2	49	151094.1918	81.25	0.9170626999984961	2	0
198.04783530000714	0.8161144999903627	1	0	0	0	0	0	0
198.8639497999975	0.8099617999978364	2	49	151095.7163	93.75	0.8216589000076056	2	0
199.67391159999534	0.8087695	2	49	151096.3983	93.75	0.6936596000159625	1	0
200.4826810999948	0.7990541000035591	2	49	151097.2673	100	0.7538722	1	0
201.28173519999837	0.8020910999912303	2	49	151098.0607	100	0.7482610000006389	1	0
202.0838262999896	0.8005074000102468	2	49	151099.0364	81.25	0.9218466	2	0
202.88433369999984	0.8009732000064105	1	0	0	0	0	0	0
203.68530690000625	0.8023463999852538	2	49	151100.3823	87.5	0.6662391999852844	1	0
204.4876532999915	0.8049493000144139	2	49	151101.5097	68.75	0.9913449000159744	2	0
205.29260260000592	0.8027366999885999	2	49	151102.0344	93.75	0.7110340999788605	1	0
206.09533929999452	0.8020787000132259	2	0	0	0	0	0	0
206.89741800000775	0.8032088	2	49	151103.4865	75	0.5583869999973103	1	0
207.70062680001138	0.8092927999969106	2	49	151104.0996	50	0.36824119999073446	1	0
208.5099196000083	0.8066661999910139	2	49	151104.9735	62.5	0.4328430999885313	1	0
209.3165857999993	0.8071575000067241	2	49	151106.1424	93.75	0.795123	2	0
210.12374330000603	0.8022584999853279	2	49	151107.0496	81.25	0.8951531999919098	2	0
210.92600179999135	0.8063169000088237	2	49	151107.8147	87.5	0.8580291999969631	2	0
211.73231870000018	0.8052757999976166	2	49	151108.6699	81.25	0.9068793999904301	2	0
212.5375944999978	0.8003439999883994	2	49	151109.3832	93.75	0.8148862000089139	2	0
213.3379384999862	0.8006059000035748	2	49	151110.1611	93.75	0.7924156000080984	2	0
214.13854439998977	0.8049912	2	49	151111.2892	56.25	1.1198960000183433	2	0
214.9435356000031	0.8102698	2	49	151111.8887	81.25	0.9144304000074044	2	0
215.75380539998878	0.8034523000242189	2	49	151112.5108	100	0.7262358000152744	1	0
216.5572577	0.8070429999788757	2	49	151113.6139	68.75	1.0259555999946315	2	0
217.36430069999187	0.8007091000035871	2	49	151114.149	100	0.7540229000151157	1	0
218.16500979999546	0.8049515	2	49	151115.0458	87.5	0.8501243999926373	2	0
218.96996129999752	0.8164742999942973	2	49	151115.8841	87.5	0.8834102000109851	2	0
219.78643559999182	0.8026485000154935	2	49	151116.6441	87.5	0.8269604000088293	2	0
220.5890841000073	0.8009054999856744	2	49	151117.3769	100	0.7570800999819767	1	0
221.3899896	0.8005998	2	49	151118.408	68.75	0.9872716999961995	2	0
222.19058940000832	0.8043435	2	49	151119.0903	87.5	0.8689653000037652	2	0
222.99493290000828	0.8019544999988284	2	49	151119.7913	100	0.7656667999981437	1	0
223.7968874000071	0.8064338999975007	2	49	151120.651	93.75	0.8233571999880951	2	0
224.6033213000046	0.8110946000088006	2	49	151121.6049	75	0.9708594999974594	2	0
225.4144159000134	0.8037143	2	49	151122.2598	93.75	0.8146953999821562	2	0
226.21813019999536	0.8007401000068057	2	49	151122.9749	100	0.7260892000049353	1	0
227.01887030000216	0.8065783999918494	2	49	151123.9623	81.25	0.9127584999951068	2	0
227.8254487	0.8116075	2	49	151124.7373	87.5	0.8811561000184156	2	0
228.63705620000837	0.7995971999771427	2	49	151125.5212	87.5	0.8534229999931995	2	0
229.43665339998552	0.8056988000171259	2	49	151126.4193	75	0.9519290000025649	2	0
230.24235220000264	0.8009584000101313	2	49	151127.1884	81.25	0.9153366000100505	2	0
231.04331060001277	0.8036466999910772	2	49	151127.8666	93.75	0.7925478999968618	2	0
231.84695730000385	0.8038698000018485	1	0	0	0	0	0	0
232.6508271000057	0.8005689	2	49	151129.2448	75	0.5632524999964517	1	0
233.45139599998947	0.8019369000103325	2	49	151130.1844	93.75	0.7023381000035442	1	0
234.2533328999998	0.8048391	2	49	151131.1304	87.5	0.8463142999971751	2	0
235.058172	0.7981667999993078	2	49	151131.8133	100	0.7244498000072781	1	0
235.85633879998932	0.8034725000034086	2	49	151132.7044	93.75	0.8173504000005778	2	0
236.65981129999273	0.8047331999987364	2	49	151133.3953	93.75	0.7047831	1	0
237.46454449999146	0.8093815000029281	2	49	151134.4826	68.75	0.9872982999950182	2	0
238.2739259999944	0.8033545000071172	2	49	151135.0873	93.75	0.7826211999927182	2	0
239.0772805000015	0.8030275999917649	2	49	151135.6838	81.25	0.5758115	1	0
239.88030809999327	0.8031527000130154	2	49	151136.4245	68.75	0.5135090000112541	1	0
240.6834608000063	0.8036477999994531	2	49	151137.2908	81.25	0.5766658000065945	1	0
241.48710860000574	0.8028749999939464	1	49	151138.0899	81.25	0.5721214000077453	1	0
242.2899835999997	0.8051608999958262	2	49	151139.0269	93.75	0.7061893	1	0
243.0951444999955	0.8039558000164106	2	49	151139.843	93.75	0.7170965000113938	1	0
243.89910030001192	0.8113292999914847	2	49	151140.645	93.75	0.7151910999964457	1	0
244.7104296000034	0.8195451000065077	2	49	151141.608	87.5	0.8668739	2	0
245.52997470000992	0.8137967999791726	2	49	151142.49	81.25	0.9293349999934435	2	0
246.3437714999891	0.8078060999978334	1	0	0	0	0	0	0
247.15157759998692	0.8021968000102788	2	49	151143.8517	87.5	0.6693658000149298	1	0
247.9537743999972	0.8054714000027161	2	49	151144.6518	87.5	0.6672912	1	0
248.75924579999992	0.8007753000129014	2	49	151145.5795	93.75	0.7895486000052188	2	0
249.56002110001282	0.8054021999996621	2	49	151146.3247	100	0.7340021999843884	1	0
250.36542330001248	0.7998767999815755	2	49	151147.0888	93.75	0.6926476999942679	1	0
251.16530009999406	0.8069219	2	49	151147.8221	87.5	0.6261336000170559	1	0
251.97222200001124	0.8031113999895751	2	49	151148.7139	93.75	0.7109714999969583	1	0
252.77533340000082	0.8048937999992631	2	49	151149.7449	75	0.9388128999853507	2	0
253.58022720000008	0.8009554999880493	2	49	151150.5253	81.25	0.9143871999986004	2	0
254.38118269998813	0.8078766000107862	2	49	151151.4661	62.5	1.054245900013484	2	0
255.18905929999892	0.7993676000041887	2	49	151152.2411	68.75	1.0213701000029687	2	0
255.9884269000031	0.8202559000055771	2	49	151153.2102	50	1.1910394000005908	2	0
256.8086828000087	0.8182932	2	49	151154.0165	50	1.1771290999895427	2	0
257.62697599999956	0.8051680999924429	2	0	0	0	0	0	0
258.4321441	0.8003921000054106	2	49	151154.8951	62.5	0.4322429000167176	1	0
259.2325361999974	0.8041732000128832	2	49	151155.6721	56.25	0.40883309999480844	1	0
260.0367094000103	0.8091886999900453	2	49	151156.6713	81.25	0.6038996999850497	1	0
260.84589810000034	0.8053708999941591	1	0	0	0	0	0	0
261.6512689999945	0.8012866000062786	2	49	151158.1634	68.75	0.4813891999947373	1	0
262.4525556000008	0.8007795999874361	2	49	151159.4364	75	0.9531738999939989	2	0
263.2533351999882	0.8052518000185955	2	49	151160.1132	87.5	0.8291372	2	0
264.0585870000068	0.8027681999956258	2	49	151161.0234	75	0.9341068999783602	2	0
264.86135520000244	0.8013190999918152	2	49	151161.7063	93.75	0.8141923999937717	2	0
265.66267429999425	0.8028662000142504	2	49	151162.6744	68.75	0.9810011000081431	2	0
266.4655405000085	0.7995789999840781	2	49	151163.3213	87.5	0.8250777999928687	2	0
267.2651194999926	0.8025851999991573	2	49	151163.9967	93.75	0.7008804999932181	1	0
268.06770469999174	0.8022925000113901	2	49	151164.9145	93.75	0.8160674000100698	2	0
268.8699972000031	0.8070880000013858	1	0	0	0	0	0	0
269.6770852000045	0.8085871000075713	2	49	151166.2695	75	0.5616788000043016	1	0
270.4856723000121	0.8029318999906536	2	49	151167.3382	93.75	0.8218306999769993	2	0
271.28860420000274	0.7985595999925863	2	49	151168.2311	81.25	0.9117401999828871	2	0
272.0871637999953	0.8013795000151731	2	49	151168.9827	87.5	0.8648679000034463	2	0
272.8885433000105	0.8039415999955963	2	49	151169.8428	81.25	0.9235846999799833	2	0
273.6924849000061	0.8041132999933325	2	49	151170.5649	87.5	0.8416864000027999	2	0
274.4965981999994	0.7980699999898206	2	49	151171.3816	87.5	0.8543090999883134	2	0
275.29466819998925	0.8025722000165842	2	49	151172.0848	100	0.7594569000066258	1	0
276.09724040000583	0.8097239999915473	2	49	151172.991	87.5	0.8630474999954458	2	0
276.9069643999974	0.8010558999958448	2	49	151173.7146	93.75	0.7769148999941535	2	0
277.7080202999932	0.8030079000163823	2	49	151174.6298	81.25	0.8910581000091042	2	0
278.5110282000096	0.8021759999974165	2	49	151175.5297	68.75	0.9879585	2	0
279.3132042	0.8082851999788545	2	49	151176.3088	75	0.9648498	2	0
280.1214893999859	0.8103998000151478	2	49	151177.1121	75	0.9598914	2	0
280.9318892	0.8069555000110995	1	0	0	0	0	0	0
281.7388447000121	0.8020424999995157	2	49	151178.2291	62.5	0.4595539000001736	1	0
282.54088720001164	0.8037454999866895	2	49	151179.1998	87.5	0.6282256999984384	1	0
283.34463269999833	0.8089324999891687	2	49	151180.0801	93.75	0.7047186999989208	1	0
284.1535651999875	0.8130687000229955	1	0	0	0	0	0	0
284.9666339000105	0.8026164999755565	2	49	151181.4454	62.5	0.4480723000015132	1	0
285.76925039998605	0.8012162	2	49	151182.4539	87.5	0.6539469000126701	1	0
286.57046660000924	0.8016574999783188	2	49	151183.4222	93.75	0.8209867999830749	2	0
287.37212409998756	0.8089063000224996	2	49	151184.1744	100	0.7715362000162713	1	0
288.18103040001006	0.8003968999837525	2	49	151185.1335	75	0.9217273999820463	2	0
288.9814272999938	0.8056416000181343	2	49	151185.8135	93.75	0.8013729999947827	2	0
289.78706890001195	0.8020492999930866	2	49	151186.4512	87.5	0.6334089000010863	1	0
290.58911820000503	0.8075180999876466	2	49	151187.3821	100	0.7622804999991786	1	0
291.3966362999927	0.8038716000155546	2	49	151188.2132	93.75	0.7858509999932721	2	0
292.20050790000823	0.8006727999891154	2	49	151189.0046	93.75	0.7733356999815442	2	0
293.00118069999735	0.8035841	2	49	151189.8746	87.5	0.8426983999961521	2	0
293.8047648000065	0.8111033999884967	2	49	151190.5832	100	0.7477031000016723	1	0
294.6158682	0.8064176999905612	2	49	151191.5832	75	0.9365966000186745	2	0
295.4222858999856	0.8039356	2	49	151192.1842	100	0.7311921000073198	1	0
296.2262214999937	0.8007175000093412	2	49	151193.0716	93.75	0.8147107000113465	2	0
297.02693900000304	0.8015878000005614	2	49	151193.8413	93.75	0.7836547000042628	2	0
297.8285268000036	0.8063311000005342	2	49	151194.6993	87.5	0.8400582000031136	2	0
298.63485790000414	0.8023781999945641	2	49	151195.3552	93.75	0.6896303999819793	1	0
299.4372360999987	0.8040025999944191	2	49	151196.1162	87.5	0.6482447999878787	1	0
300.2412386999931	0.8052484999934677	1	49	151197.0184	100	0.7464849000098184	1	0
301.0464871999866	0.7997606999997515	2	49	151197.8327	100	0.7554562000150327	1	0
301.84624789998634	0.8005292000016198	2	49	151198.5348	87.5	0.6578184000100009	1	0
302.64677709998796	0.8084624000184704	1	49	151199.268	81.25	0.5904692000185605	1	0
303.4552395000064	0.8071289999934379	2	49	151200.5549	62.5	1.0689684999815654	2	0
304.26236849999987	0.8050438000063878	2	49	151201.1937	81.25	0.9006012000027113	2	0
305.06741230000625	0.8031279	2	49	151201.8547	100	0.7565561999799684	1	0
305.87054020000505	0.8043364000041038	2	49	151202.5758	87.5	0.6745801999932155	1	0
306.67487660000916	0.8053250999946613	2	49	151203.3972	93.75	0.6915961	1	0
307.4802017000038	0.8027116000012029	2	49	151204.4108	81.25	0.8998386999883223	2	0
308.2829133	0.8094903999881353	1	0	0	0	0	0	0
309.09240369999316	0.8052978000196163	2	49	151205.7708	87.5	0.6477027999935672	1	0
309.8977015000128	0.8070801	2	49	151206.6596	100	0.7311599999957252	1	0
310.7047816000122	0.8097264999814797	2	49	151207.4919	100	0.7564158999884967	1	0
311.5145080999937	0.8012331000063568	1	0	0	0	0	0	0
312.31574120000005	0.8009294999937993	2	49	151208.9281	81.25	0.5816569000016898	1	0
313.11667069999385	0.8078207999933511	2	49	151209.8328	93.75	0.6853809	1	0
313.9244914999872	0.8039358000096399	2	49	151210.6649	93.75	0.7096861000172794	1	0
314.72842729999684	0.8013857000041753	2	49	151211.466	93.75	0.7068475999985822	1	0
315.529813	0.8015040000027511	2	49	151212.3803	93.75	0.8198093000100926	2	0
316.33131700000376	0.8116528999817092	2	49	151213.1528	93.75	0.7907618999888655	2	0
317.1429698999855	0.8005736000195611	2	49	151214.2091	62.5	1.035416200000327	2	0
317.94354350000503	0.8059509999875445	2	49	151214.8981	81.25	0.9238469999982044	2	0
318.7494944999926	0.8038213000108954	2	49	151215.6336	87.5	0.8533969	2	0
319.5533158000035	0.8051585000066552	2	49	151216.3538	100	0.7697592999902554	1	0
320.35847430001013	0.8061737	2	49	151217.2653	87.5	0.8761059999815188	2	0
321.1646480000054	0.8023053999932017	2	49	151217.9982	93.75	0.8027967999805696	2	0
321.9669533999986	0.8118595000123605	2	49	151218.8602	87.5	0.8624897999980021	2	0
322.77881290001096	0.8053040999802761	2	49	151219.6647	87.5	0.8551541999913752	2	0
323.58411699999124	0.8012576000182889	1	0	0	0	0	0	0
324.3853746000095	0.8060399999958463	2	49	151220.9753	75	0.5591969999950379	1	0
325.1914146000054	0.8089056999888271	2	49	151221.8717	87.5	0.6495385	1	0
326.0003202999942	0.8040779000148177	2	49	151222.7062	87.5	0.6751409000135027	1	0
326.8043982	0.8031223999860231	2	49	151223.7383	81.25	0.9031886000011582	2	0
327.60752059999504	0.8014296000183094	2	49	151224.3796	100	0.7414119000022765	1	0
328.40895020001335	0.8149757999926805	2	49	151225.1524	93.75	0.7127506999822799	1	0
329.22392600000603	0.8003054999862798	2	49	151225.9562	93.75	0.7015548000053968	1	0
330.0242314999923	0.8017283	2	49	151226.7695	93.75	0.7145915000000969	1	0
330.82595979998587	0.8009244	2	49	151227.6715	93.75	0.8147951000137255	2	0
331.62688419999904	0.809861	2	49	151228.4444	93.75	0.7867875999945682	2	0
332.43674519998604	0.8148333000135608	2	49	151229.4029	81.25	0.9354290000046603	2	0
333.2515784999996	0.8099705000058748	2	49	151230.3076	68.75	1.0252833999984432	2	0
334.06154900000547	0.8061030999815557	2	49	151231.2121	56.25	1.1198426999908406	2	0
334.8676521	0.8000092000002041	2	49	151231.8787	68.75	0.9802855	2	0
335.66766129998723	0.8117289000074379	2	49	151232.7807	62.5	1.0823730000120122	2	0
336.47939019999467	0.8084237000148278	2	49	151233.653	50	1.142854300007457	2	0
337.2878139000095	0.8020838999946136	2	0	0	0	0	0	0
338.0898978000041	0.8029545999888796	2	49	151234.6159	68.75	0.4953157	1	0
338.8928524	0.8059110000031069	2	49	151235.7327	93.75	0.8091298000072129	2	0
339.6987633999961	0.7997470000118483	2	49	151236.5337	93.75	0.8041769	2	0
340.49851040000794	0.8043456999876071	2	49	151237.5341	68.75	1.004893000004813	2	0
341.30285609999555	0.8063721999933477	2	49	151238.3327	68.75	0.9991055	2	0
342.1092282999889	0.8135658999963198	2	49	151239.1961	62.5	1.0561812000232749	2	0
342.9227941999852	0.8225832000025548	1	0	0	0	0	0	0
343.7453773999878	0.8007945000135805	2	49	151240.3568	81.25	0.5806865000049584	1	0
344.54617190000135	0.8053360999911092	2	49	151241.219	87.5	0.6421482	1	0
345.35150799999246	0.8041657000139821	2	49	151242.0489	87.5	0.6666923000011593	1	0
346.15567370000645	0.8050180999853183	2	49	151242.943	100	0.7566361000062898	1	0
346.96069179999176	0.809203	2	49	151243.9383	75	0.9468855000159238	2	0
347.7698948000034	0.8014967	2	49	151244.6264	87.5	0.8257750000047963	2	0
348.57139150000876	0.7993582999915816	2	49	151245.3734	93.75	0.7712534999882337	2	0
349.37074980000034	0.8015715999936219	1	0	0	0	0	0	0
350.17232139999396	0.7983170000079554	2	49	151246.6755	68.75	0.47245960001600906	1	0
350.9706384000019	0.8005312999885064	2	49	151247.6861	93.75	0.6847773999907076	1	0
351.7711696999904	0.8061768000188749	2	49	151248.6633	87.5	0.8614435000054073	2	0
352.5773465000093	0.8017396999930497	2	49	151249.3899	93.75	0.7818773000035435	2	0
353.37908620000235	0.8009503000066616	2	49	151250.3321	81.25	0.9223305000050459	2	0
354.1800365	0.8012312999926507	2	49	151250.9854	93.75	0.7746571000025142	2	0
354.98126780000166	0.8050641	2	49	151251.8074	93.75	0.7954456000006758	2	0
355.7863319	0.8011617000156548	2	49	151252.5693	100	0.7522800000151619	1	0
356.58749360000365	0.8046517999900971	2	49	151253.318	93.75	0.6998103999940213	1	0
357.39214539999375	0.8035323999938555	2	49	151254.0721	87.5	0.6492729000165127	1	0
358.1956777999876	0.7979891000140924	1	49	151254.8172	81.25	0.5908539000083692	1	0
358.9936669000017	0.8021607999980915	2	49	151255.7084	93.75	0.6840339000045788	1	0
359.7958276999998	0.8038789000129327	2	49	151256.5429	93.75	0.716349	1	0
360.5997066000127	0.7987819999980275	2	49	151257.2852	87.5	0.6548019999754615	1	0
361.39848860001075	0.8119245999841951	2	49	151258.1572	93.75	0.7280192999751307	1	0
362.21041319999495	0.8069281000061892	2	49	151258.9813	100	0.7402086000074632	1	0
363.01734130000114	0.8014320000074804	2	49	151259.7214	93.75	0.6733787999837659	1	0
363.8187733000086	0.8039365999866277	2	49	151260.5313	93.75	0.6818584	1	0
364.62270989999524	0.8159476000000723	2	49	151261.2654	81.25	0.6119607000146061	1	0
365.4386574999953	0.7994560000079218	2	49	151262.0518	81.25	0.5824036	1	0
366.23811350000324	0.8002207999816164	2	49	151262.8944	87.5	0.6256036	1	0
367.03833429998485	0.8019578000239562	2	49	151263.6351	75	0.5660999000247102	1	0
367.8402921000088	0.8098242999985814	1	49	151264.5871	93.75	0.7161183999851346	1	0
368.6501164000074	0.8030682999815326	2	49	151265.4396	100	0.7587366999941878	1	0
369.4531846999889	0.8037255000090227	1	0	0	0	0	0	0
370.25691019999795	0.8067142000072636	2	49	151266.9542	87.5	0.6666127000062261	1	0
371.0636244000052	0.8057241000060458	2	49	151267.811	93.75	0.7166239999933168	1	0
371.86934850001126	0.8057386000000406	2	49	151268.7495	87.5	0.8494584999862127	2	0
372.6750871000113	0.8039990999968722	2	49	151269.6061	81.25	0.9002971999871079	2	0
373.47908620000817	0.8048034999810625	2	49	151270.4739	75	0.9641351999889594	2	0
374.28388969998923	0.8051822000124957	2	49	151271.2122	81.25	0.8975467999989633	2	0
375.0890719000017	0.8042945000051986	1	0	0	0	0	0	0
375.8933664000069	0.8035078999819234	2	49	151272.5	81.25	0.5759034	1	0
376.69687429998885	0.8002637000172399	2	49	151273.3133	81.25	0.5856681000150274	1	0
377.4971380000061	0.8029624999908265	2	49	151274.2097	93.75	0.6818845999951009	1	0
378.3001004999969	0.8041224000044167	1	0	0	0	0	0	0
379.10422290000133	0.8048602000053506	2	49	151275.6853	75	0.5503725000016857	1	0
379.9090831000067	0.8069404999841936	2	49	151276.648	93.75	0.7082218999858014	1	0
380.7160235999909	0.8096515000215732	2	49	151277.4989	100	0.7521615000150632	1	0
381.52567510001245	0.8043228999886196	2	49	151278.5753	68.75	1.0188875999883749	2	0
382.32999800000107	0.8025267999910284	2	49	151279.4651	56.25	1.1044142000027932	2	0
383.1325247999921	0.8029712999996264	2	49	151280.3054	50	1.1421819000097457	2	0
383.9354960999917	0.8036381	1	0	0	0	0	0	0
384.7391342000046	0.7998706999933347	2	49	151281.3992	87.5	0.6293022999889217	1	0
385.53900489999796	0.8007747000083327	2	49	151282.4934	75	0.9236760000057984	2	0
386.3397796000063	0.8102122999844141	1	0	0	0	0	0	0
387.1499918999907	0.8104375000111759	2	49	151283.7044	68.75	0.523685	1	0
387.9604294000019	0.8022651000064798	2	49	151284.8793	81.25	0.8881345999834593	2	0
388.76269450000837	0.8041926999867428	1	0	0	0	0	0	0
389.5668871999951	0.8010212999943178	2	49	151286.2283	87.5	0.6307215999986511	1	0
390.3679084999894	0.8147127999982331	2	49	151287.1833	100	0.7846730000164825	1	0
391.18262129998766	0.8034708000195678	1	49	151288.1146	81.25	0.9013125000055879	2	0
391.9860921000072	0.8028887999826111	1	0	0	0	0	0	0
392.78898089998984	0.8073854999965988	2	49	151289.7677	75	0.9479591000126675	2	0
393.59636639998644	0.8038246000069194	2	49	151290.4666	87.5	0.8394847000017762	2	0
394.40019099999336	0.8001032000174746	2	49	151291.2227	93.75	0.7917767000035383	2	0
395.20029420001083	0.8052448999951594	2	49	151291.8793	87.5	0.6483223999966867	1	0
396.0055391	0.8075264999934006	2	49	151292.8088	100	0.7725130000035278	1	0
396.8130655999994	0.8153957999893464	2	49	151293.8081	75	0.9643392	2	0
397.62846139998874	0.8083754999970552	2	49	151294.5147	87.5	0.8555541000096127	2	0
398.4368368999858	0.8056751000112854	2	49	151295.2845	93.75	0.8169322	2	0
399.2425119999971	0.8002552000107244	1	0	0	0	0	0	0
400.0427672000078	0.8024559000041336	2	49	151296.8054	100	0.7319343999843113	1	0
400.84522310001194	0.8067905	2	49	151297.5737	93.75	0.6977994999906514	1	0
401.6520136	0.8033618000044953	2	49	151298.4213	100	0.7385447	1	0
402.4553753999935	0.8061940000043251	2	49	151299.434	75	0.9479155000008177	2	0
403.2615693999978	0.8096720000030473	2	49	151300.1756	81.25	0.8833649999869522	2	0
404.0712414000009	0.8127925999870058	2	49	151301.0368	81.25	0.9348447000083979	2	0
404.8840339999879	0.8077712000231259	2	49	151301.6672	100	0.7524466	1	0
405.6918052	0.8020383999974001	1	0	0	0	0	0	0
406.4938436000084	0.8017606999783311	2	49	151303.0119	68.75	0.4873655999836046	1	0
407.29560429998673	0.8069262000208255	2	49	151304.0577	100	0.7313795000081882	1	0
408.10253050000756	0.8093936999794096	2	49	151304.9264	93.75	0.7931627999932971	2	0
408.91192419998697	0.8007389999984298	2	49	151305.9187	68.75	0.9760226	2	0
409.7126631999854	0.8056634000095073	2	49	151306.8132	62.5	1.0697884000255726	2	0
410.5183265999949	0.8097805000143126	2	49	151307.7576	43.75	1.2085348000109661	2	0
411.3281071000092	0.8055199999944307	2	49	151308.5691	43.75	1.2102657999785151	2	0
412.13362710000365	0.8010412000003271	1	0	0	0	0	0	0
412.9346683	0.8065299000008963	2	49	151309.7104	100	0.7450625000055879	1	0
413.7411982000049	0.8084824999968987	2	49	151310.7258	75	0.9538822	2	0
414.5496807000018	0.8049589000002015	2	49	151311.7545	50	1.1741221999982372	2	0
415.3546396	0.8039323999837507	2	0	0	0	0	0	0
416.1585719999857	0.8036339	2	49	151312.8932	93.75	0.7039284000056796	1	0
416.96220589999575	0.8065715999982785	2	49	151313.7865	93.75	0.7935928000079002	2	0
417.76877749999403	0.8072662999911699	2	49	151314.6754	87.5	0.8759462000161875	2	0
418.5760437999852	0.8005985000054352	2	49	151315.7911	43.75	1.184365000022808	2	0
419.37664229999064	0.8036774000211153	2	49	151316.5096	56.25	1.1022343000222463	2	0
420.18031970001175	0.8038646	2	0	0	0	0	0	0
420.9841843000031	0.8017392999900039	2	49	151317.726	93.75	0.7110554999962915	1	0
421.7859235999931	0.8065449999994598	2	49	151318.6958	81.25	0.8791269999928772	2	0
422.59246859999257	0.8059543000126723	2	49	151319.6617	62.5	1.0384789000090677	2	0
423.39842290000524	0.8042265999829397	2	49	151320.3682	75	0.9390781999973115	2	0
424.2026494999882	0.8031266	2	49	151321.0485	93.75	0.8151329000247642	2	0
425.0057761000062	0.8047428999852855	1	0	0	0	0	0	0
425.8105189999915	0.8043801	2	49	151322.6228	93.75	0.7815777000214439	2	0
426.6148991000082	0.8025044999958482	1	0	0	0	0	0	0
427.41740360000404	0.8010684000037145	2	49	151324.4814	62.5	1.0332447999971919	2	0
428.21847200000775	0.802175	2	49	151325.0392	93.75	0.7899863999919035	2	0
429.02064699999755	0.8024153000151273	2	49	151325.6555	81.25	0.6041735	1	0
429.8230623000127	0.8005337999784388	2	49	151326.5798	100	0.7260429999732878	1	0
430.6235960999911	0.8006796000117902	2	49	151327.4057	100	0.7513532000011764	1	0
431.4242757000029	0.8095516	2	49	151328.3446	81.25	0.8895744000037666	2	0
432.2338272999914	0.8076912	2	0	0	0	0	0	0
433.04151849998743	0.8154885000258218	2	49	151329.776	93.75	0.7037459000130184	1	0
433.85700700001325	0.8074062999803573	1	0	0	0	0	0	0
434.6644132999936	0.8062158	2	49	151331.4027	93.75	0.7075656999950297	1	0
435.4706290999893	0.8100068000203464	2	49	151332.215	93.75	0.7136452000122517	1	0
436.28063590000966	0.8013632999791298	2	49	151333.1602	87.5	0.8488005999824964	2	0
437.0819991999888	0.8057432000059634	2	49	151334.093	68.75	0.9802454000164289	2	0
437.88774239999475	0.8024152000143658	2	0	0	0	0	0	0
438.6901576000091	0.8029549	2	49	151335.5768	87.5	0.8559422999969684	2	0
439.4931125000003	0.8010095999925397	2	49	151336.5391	68.75	1.0152296999876853	2	0
440.2941220999928	0.8053988000028767	2	0	0	0	0	0	0
441.0995208999957	0.8107842000026722	2	49	151337.5694	62.5	0.4392000999941956	1	0
441.91030509999837	0.8007534999924246	2	49	151338.7569	93.75	0.8158426999871153	2	0
442.7110585999908	0.8049354999966454	2	49	151339.7271	68.75	0.9853712000185624	2	0
443.51599409998744	0.8032822000095621	2	49	151340.665	56.25	1.1182903000153601	2	0
444.3192763	0.8082954999990761	2	0	0	0	0	0	0
445.1275717999961	0.8039078000001609	2	49	151342.05	81.25	0.8916704000148457	2	0
445.93147959999624	0.8011906	2	49	151342.839	81.25	0.8767787000106182	2	0
446.7326701999991	0.8062937000067905	2	49	151343.6431	81.25	0.8797008	2	0
447.5389639000059	0.8062150999903679	1	0	0	0	0	0	0
448.3451789999963	0.8030991000123322	2	49	151344.9833	81.25	0.6074029000010341	1	0
449.1482781000086	0.8028403999924194	2	49	151345.9874	93.75	0.8083571000024676	2	0
449.95111850000103	0.8019064000109211	2	49	151346.9642	68.75	0.9823802000028081	2	0
450.75302490001195	0.8081253999844193	2	49	151347.7564	75	0.9726464999839664	2	0
451.56115029999637	0.8179086000018287	2	49	151348.4644	87.5	0.8725525	2	0
452.3790588999982	0.8020368000143208	2	49	151349.2464	87.5	0.8365781999891624	2	0
453.1810957000125	0.8008388999733143	2	49	151350.1583	75	0.9464485	2	0
453.98193459998583	0.8013190000201575	2	0	0	0	0	0	0
454.7832536	0.8101716999954078	1	49	151351.4493	87.5	0.6353639999870211	1	0
455.5934253000014	0.8058646999998018	2	49	151352.3863	100	0.7621452999883331	1	0
456.3992900000012	0.8149664000084158	2	49	151353.1576	93.75	0.7276305000123102	1	0
457.2142564000096	0.8003622999822255	2	49	151354.1038	87.5	0.8588615999906324	2	0
458.01461869999184	0.8042784999997821	1	0	0	0	0	0	0
458.8188971999916	0.7995476000069175	2	49	151355.4784	87.5	0.6287519	1	0
459.61844479999854	0.8136496999941301	2	49	151356.3596	93.75	0.7104088	1	0
460.4320944999927	0.8004692000104114	1	49	151357.2156	100	0.7527902000001632	1	0
461.2325637000031	0.7996412999927998	2	49	151358.0704	93.75	0.8070850000076462	2	0
462.0322049999959	0.8046558999922127	2	49	151358.825	100	0.7621176000102423	1	0
462.8368608999881	0.8006051999982446	2	49	151359.7436	81.25	0.8760278999980073	2	0
463.63746609998634	0.8052801	2	49	151360.5813	81.25	0.9131167000159621	2	0
464.4427461999876	0.8021061000181362	2	49	151361.3701	81.25	0.8966297000006307	2	0
465.24485230000573	0.8054284999961965	2	49	151362.1145	87.5	0.8389560999930836	2	0
466.05028080000193	0.8033735000062734	2	49	151362.8899	93.75	0.8089513999875635	2	0
466.8536543000082	0.8030971999978647	1	0	0	0	0	0	0
467.65675150000607	0.8054015	2	49	151364.5988	81.25	0.9113765999791212	2	0
468.4621530000004	0.8122855999972671	2	49	151365.1428	87.5	0.6499058000044897	1	0
469.27443859999767	0.8027575000014622	2	49	151365.9699	87.5	0.6647368000121787	1	0
470.0771960999991	0.7994178000080865	2	49	151366.7692	87.5	0.6613145000010263	1	0
470.8766139000072	0.8009714999934658	2	49	151367.6213	93.75	0.7139524999947753	1	0
471.6775854000007	0.8042944000044372	2	49	151368.6437	75	0.9354333000082988	2	0
472.4818798000051	0.8005285999970511	2	49	151369.2909	93.75	0.7782683999976143	2	0
473.28240840000217	0.8030730999889784	2	49	151370.3472	62.5	1.0340512999973726	2	0
474.08548149999115	0.8068388	2	49	151371.0727	75	0.956495	2	0
474.89232029998675	0.8137008000048809	1	0	0	0	0	0	0
475.70602109999163	0.8047838	2	49	151372.253	68.75	0.5162781999970321	1	0
476.5108048999973	0.7992237000144087	2	49	151373.2658	100	0.7242999000009149	1	0
477.3100286000117	0.8034074999741279	1	0	0	0	0	0	0
478.11343609998585	0.8081553000083659	2	49	151374.8645	93.75	0.7203617000195663	1	0
478.9215913999942	0.8011619000171777	2	49	151375.6162	87.5	0.6638587999914307	1	0
479.7227533000114	0.8124816999770701	2	49	151376.5133	100	0.7597872999904212	1	0
480.53523499998846	0.8030403000011574	2	49	151377.3905	87.5	0.8245909000106622	2	0
481.3382752999896	0.7990116000000853	2	0	0	0	0	0	0
482.1372868999897	n/a	0	0	0	0	0	0	0