onset	duration	offset	trial	item	RT	response
59.232800000000005	4.400509300001403	63.63330930000141	1	att	3.32298600004287	7.0
63.634604300025096	4.121213599981303	67.7558179000064	1	past	2.41404519998468	6.0
67.75693800003711	2.9757869999739057	70.73272500001102	1	fut	0.861724499962293	7.0
70.7341069999986	2.2766809000167996	73.0107879000154	1	self	1.20573540002806	7.0
73.01196120004371	2.9909207999589995	76.00288200000271	1	ppl	1.85606799996458	7.0
76.003984000012	1.7870816999929957	77.79106570000499	1	arou	0.945336300006602	4.0
77.7920248000321	3.3927525999609003	81.184777399993	1	aff	2.30930779996561	6.0
81.18594560004001	1.9224008999890003	83.10834650002901	1	eng	1.03068839997286	4.0
83.10923020000502	3.68283770000599	86.792067900011	1	mvmt	1.85957560001407	9.0
86.79589230002802	3.0958741999929913	89.891766500021	1	delib	2.10372820001794	3.0
89.89277410001	2.359061199997001	92.251835300007	1	image	1.20799399999669	6.0
92.25305300002401	1.3814171999700022	93.63447019999401	1	ling	0.597749200009275	6.0
93.635752500037	2.117539900005994	95.753292400043	1	conf	0.867474899976514	7.0
152.298139100023	3.963064400013991	156.261203500037	2	att	2.81303000001935	7.0
156.262015000046	3.0937969999500012	159.355811999996	2	past	1.96018279995769	6.0
159.356782599995	2.1466567000019836	161.50343929999698	2	fut	1.17919660004554	6.0
161.504447799993	3.619093200017005	165.12354100001	2	self	2.27267160004703	8.0
165.12470069999299	1.5638276000390192	166.688528300032	2	ppl	0.786426000006031	4.0
166.68963090004598	2.730098299973008	169.419729200019	2	arou	1.38465779996477	7.0
169.420698200005	1.9480602000259921	171.368758400031	2	aff	1.14847000001464	4.0
171.369703400009	2.214360499986981	173.58406389999598	2	eng	0.938084000023082	4.0
173.585161900033	2.184358500002986	175.769520400036	2	mvmt	1.32602849998511	6.0
175.770639199998	2.7542009000320036	178.52484010003	2	delib	0.924091099994257	3.0
178.525961900016	1.8743180999879883	180.400280000004	2	image	0.727202499983832	5.0
180.401058299993	2.1497927000160075	182.550851000009	2	ling	1.40254440001445	6.0
182.551953800025	1.4485590999830151	184.000512900008	2	conf	1.04347929998767	5.0
243.609750400008	4.84340320003696	248.45315360004497	3	att	4.83770450000884	NaN
248.453688100041	6.599805999954015	255.05349409999502	3	past	4.31854379997822	5.0
255.054343900005	2.2159878000380218	257.270331700043	3	fut	1.73518389998935	5.0
257.271031000013	2.9910329999989926	260.262064000012	3	self	1.59093830001075	6.0
260.262927700011	3.7661428999849704	264.029070599996	3	ppl	1.41563519998454	1.0
264.029835099997	4.715283400029989	268.745118500027	3	arou	1.25967220001621	1.0
268.746000999994	1.4994785000459956	270.24547950004	3	aff	1.04940980003448	5.0
270.246264600022	1.4696212999990053	271.715885900021	3	eng	0.768848099978641	5.0
271.71692400001	1.5537992999890093	273.270723299999	3	mvmt	0.846551000024192	5.0
273.271375500017	2.9157187999810503	276.187094299998	3	delib	0.783402799977921	2.0
276.187811600046	1.5678857999739648	277.75569740002	3	image	1.04357239999808	5.0
277.756497099998	1.2642716999980053	279.020768799996	3	ling	0.9582408000133	5.0
279.021835400026	2.3591308000039817	281.38096620003	3	conf	1.08444569999119	4.0
333.91468059999397	5.907352900016008	339.82203350001	4	att	2.5693428000086	6.0
339.82260180003	2.4670194999779937	342.289621300008	4	past	1.73732839996228	6.0
342.289640000034	1.6580922999999643	343.947732300034	4	fut	0.951740899996366	7.0
343.947749100045	2.250427399995033	346.19817650004	4	self	1.15400129999034	6.0
346.198191000034	2.5324893000070006	348.730680300041	4	ppl	0.468404299987014	7.0
348.730697299996	2.5586058000340017	351.28930310003	4	arou	1.08530299999984	4.0
351.289321699997	1.775569200049972	353.064890900047	4	aff	1.17080890003126	7.0
353.064907800001	1.9584132000450154	355.023321000046	4	eng	1.07024700002512	3.0
355.02333850000497	2.4612201999990475	357.484558700004	4	mvmt	0.974848999991082	3.0
357.484578300037	2.6552999999839813	360.139878300021	4	delib	0.847343100002035	3.0
360.13989350002	2.8006646999860436	362.940558200006	4	image	0.94476250000298	8.0
362.940576800031	2.7913600999739856	365.731936900005	4	ling	1.05917680001585	3.0
365.731954600024	1.6663965000190046	367.398351100043	4	conf	0.836407499969937	7.0
420.018226000017	6.153607600018972	426.171833600036	5	att	3.1353832000168	5.0
426.171855900031	4.982505299965965	431.15436119999697	5	past	1.13167789997533	4.0
431.154383999996	1.818211700010977	432.972595700007	5	fut	0.949253500031773	6.0
432.9726178	1.9668597000419936	434.939477500042	5	self	0.749765800021123	8.0
434.939499700037	2.8338878999929875	437.77338760003	5	ppl	0.898178100003861	5.0
437.773406299997	3.6315273999939564	441.404933699991	5	arou	2.18013490003068	4.0
441.404952100015	1.3998721999809618	442.80482429999597	5	aff	0.85006099997554	5.0
442.80484390002897	5.226139299979025	448.030983200008	5	eng	0.831850599963218	3.0
448.03102440003	2.0589221999990173	450.089946600029	5	mvmt	1.53992309997557	5.0
450.08996710000997	0.9843363999970052	451.074303500007	5	delib	0.681996700004674	5.0
451.074322500035	4.933198999962997	456.007521499998	5	image	0.89595360000385	3.0
456.007542400041	1.3724713999539517	457.38001379999497	5	ling	0.447017700003926	7.0
457.38003140001297	0.9438646999770413	458.32389609999	5	conf	0.609162700013258	5.0
514.917434000005	3.760138100013023	518.677572100018	6	att	2.35810910002328	8.0
518.677594500014	3.548325199982969	522.225919699997	6	past	1.029738000012	9.0
522.225941200044	2.2342013999590336	524.460142600003	6	fut	0.905664599966258	1.0
524.460164799997	2.7296261000450386	527.189790900042	6	self	1.00554480002029	8.0
527.189811100021	1.889412900026059	529.079224000047	6	ppl	0.870389399991836	8.0
529.079242300011	2.5921855000200367	531.671427800031	6	arou	1.00222179997945	8.0
531.671441700021	3.190800299984062	534.862242000005	6	aff	0.802339199988637	2.0
534.86225930002	1.770177099969942	536.63243639999	6	eng	0.813850499980617	7.0
536.632457100032	3.3305948000050876	539.963051900037	6	mvmt	1.6413408999797	3.0
539.963071400011	2.8635129000169854	542.826584300028	6	delib	0.919002900016494	1.0
542.826604600008	1.8582091000280343	544.684813700036	6	image	0.977630599983968	3.0
544.68483059999	2.8979668000249603	547.582797400015	6	ling	1.62404410005547	7.0
547.582814000025	2.329014200018946	549.9118282000439	6	conf	0.908890999970026	5.0
