onset	duration	cue	constant1	timestamp	stimulus_coherence	response_time	response	constant2
0.0883642	0.7984831999056041	2	49	3616819.546	81.25	0.8788395998999476	2	0
0.8868474001064897	0.7970700999721885	1	0	0	0	0	0	0
1.6839175000786781	0.7975893002003431	2	49	3616820.983	100	0.7206694	1	0
2.4815068002790213	0.7986988998018205	2	49	3616821.683	87.5	0.6231358000077307	1	0
3.280205700080842	0.8402883000671864	2	49	3616822.463	75	0.6043373001739383	1	0
4.120494000148028	0.8012279998511076	2	49	3616823.438	100	0.7391924997791648	1	0
4.921721999999136	0.7998422002419829	2	49	3616824.329	87.5	0.8280374999158084	2	0
5.721564200241119	0.7985684997402132	2	49	3616825.1	93.75	0.7997572999447584	2	0
6.520132699981332	0.7972444999031723	2	49	3616825.758	87.5	0.6594664002768695	1	0
7.317377199884504	0.8015872002579272	2	49	3616826.551	87.5	0.6550990003161132	1	0
8.118964400142431	0.7994936998002231	2	49	3616827.56	87.5	0.8626307998783886	2	0
8.918458099942654	0.7986302003264427	2	49	3616828.269	93.75	0.7720313002355397	2	0
9.717088300269097	0.7985411998815835	2	49	3616829.069	93.75	0.7735357997007668	2	0
10.51562950015068	0.7984834997914732	2	49	3616829.941	87.5	0.8467246000654995	2	0
11.314112999942154	0.7998506003059447	2	49	3616830.608	93.75	0.7154842000454664	1	0
12.113963600248098	0.8013638998381793	2	49	3616831.572	81.25	0.8795137000270188	2	0
12.915327500086278	0.7981548998504877	2	49	3616832.201	93.75	0.7065253998152912	1	0
13.713482399936765	0.7996335001662374	1	49	3616832.962	87.5	0.6693406002596021	1	0
14.513115900103003	0.7972197998315096	2	49	3616833.782	93.75	0.6904298001900315	1	0
15.310335699934512	0.7986460002139211	2	49	3616834.609	93.75	0.7194540002383292	1	0
16.108981700148433	0.7995349001139402	2	49	3616835.503	93.75	0.8148738997988403	2	0
16.908516600262374	0.7981344000436366	2	49	3616836.35	87.5	0.8631175	2	0
17.70665100030601	0.8001524996943772	2	49	3616837.18	81.25	0.8942982996813953	2	0
18.506803500000387	0.7983117001131177	2	49	3616837.935	87.5	0.8489413000643253	2	0
19.305115200113505	0.7980542001314461	2	49	3616838.658	93.75	0.7740603997372091	2	0
20.10316940024495	0.8001961000263691	2	49	3616839.556	81.25	0.8738304	2	0
20.90336550027132	0.7988571999594569	2	49	3616840.215	100	0.7324190996587276	1	0
21.702222700230777	0.7979663996957242	2	49	3616841.034	100	0.7534656999632716	1	0
22.5001891	0.8002738002687693	2	49	3616841.911	87.5	0.8316297000274062	2	0
23.30046290019527	0.8007938996888697	2	49	3616842.694	93.75	0.8145174998790026	2	0
24.10125679988414	0.7988644000142813	2	49	3616843.385	93.75	0.7044844003394246	1	0
24.90012119989842	0.7998318001627922	1	0	0	0	0	0	0
25.699953000061214	0.8025866998359561	2	49	3616845.079	93.75	0.8002635999582708	2	0
26.50253969989717	0.8006055001169443	2	49	3616845.859	93.75	0.7774473000317812	2	0
27.303145200014114	0.7981014000251889	2	49	3616846.743	87.5	0.8611198998987675	2	0
28.101246600039303	0.8003028002567589	2	49	3616847.511	87.5	0.8309855000115931	2	0
28.901549400296062	0.7983390996232629	2	49	3616848.369	81.25	0.8884347998537123	2	0
29.699888499919325	0.7979232999496162	2	49	3616849.148	87.5	0.8695160001516342	2	0
30.49781179986894	0.7985832002013922	2	49	3616849.869	93.75	0.7921957	2	0
31.296395000070333	0.7978337998501956	2	49	3616850.736	87.5	0.8613307001069188	2	0
32.09422879992053	0.8025023001246154	2	49	3616851.483	93.75	0.8098413003608584	2	0
32.896731100045145	0.8016713000833988	2	49	3616852.215	100	0.7392870998010039	1	0
33.69840240012854	0.7994085997343063	2	49	3616853.072	93.75	0.7945054997690022	2	0
34.49781099986285	0.8014230001717806	2	49	3616853.846	100	0.7694837003946304	1	0
35.29923400003463	0.7994456999003887	2	49	3616854.656	93.75	0.7780967000871897	2	0
36.09867969993502	0.7992573003284633	2	49	3616855.561	81.25	0.8830577000044286	2	0
36.89793700026348	0.8011505	1	0	0	0	0	0	0
37.69908750010654	0.7983446000143886	2	49	3616857.119	87.5	0.8411932997405529	2	0
38.49743210012093	0.7982813999988139	2	49	3616857.924	87.5	0.8478688	2	0
39.295713500119746	0.7988184997811913	2	49	3616858.614	100	0.7399345999583602	1	0
40.09453199990094	0.8000919003970921	2	49	3616859.304	87.5	0.6309065003879368	1	0
40.89462390029803	0.8008331996388733	2	49	3616860.208	100	0.734887	1	0
41.6954571	0.8015608000569046	2	49	3616861.035	100	0.7604399002157152	1	0
42.49701789999381	0.7992853000760078	2	49	3616861.862	93.75	0.7862555	2	0
43.296303200069815	0.7990907002240419	2	49	3616862.664	93.75	0.7886183001101017	2	0
44.09539390029386	0.7982921996153891	2	49	3616863.472	93.75	0.7982431999407709	2	0
44.893686099909246	0.7994783003814518	1	0	0	0	0	0	0
45.6931644	0.7987011997029185	2	49	3616865.033	100	0.7615421996451914	1	0
46.491865599993616	0.7997758002020419	1	49	3616865.88	93.75	0.8093126001767814	2	0
47.29164140019566	0.7996276998892426	2	49	3616866.648	93.75	0.7778253997676075	2	0
48.0912691	0.7995402999222279	2	49	3616867.493	87.5	0.8234116998501122	2	0
48.89080940000713	0.8011278999038041	1	0	0	0	0	0	0
49.69193729991093	0.7983567002229393	2	49	3616869.095	87.5	0.8246655003167689	2	0
50.49029400013387	0.7980458997189999	1	0	0	0	0	0	0
51.28833989985287	0.7982995002530515	2	49	3616870.649	93.75	0.7820978001691401	2	0
52.08663940010592	0.7986706	2	49	3616871.422	100	0.7564509999938309	1	0
52.88531000027433	0.7984029999934137	1	49	3616872.274	93.75	0.8102402999065816	2	0
53.683713000267744	0.7994293	2	49	3616872.955	93.75	0.6924025998450816	1	0
54.483142300043255	0.7986131999641657	2	49	3616873.893	87.5	0.8310350999236107	2	0
55.28175550000742	0.8003122000955045	1	0	0	0	0	0	0
56.082067700102925	0.800596	2	49	3616875.47	93.75	0.8088428000919521	2	0
56.88266370026395	0.8003881997428834	2	49	3616876.25	93.75	0.7884873	2	0
57.68305190000683	0.7972726002335548	2	49	3616877.131	81.25	0.8691020999103785	2	0
58.480324500240386	0.7987215998582542	2	49	3616877.858	93.75	0.7988073	2	0
59.27904610009864	0.7978022000752389	2	49	3616878.642	93.75	0.7842709	2	0
60.07684830017388	0.7990544000640512	2	49	3616879.572	81.25	0.9168457998894155	2	0
60.87590270023793	0.8012826000340283	1	0	0	0	0	0	0
61.67718530027196	0.7987889996729791	2	49	3616881.021	100	0.7650992996059358	1	0
62.47597429994494	0.7994900001212955	2	49	3616881.979	75	0.9239596002735198	2	0
63.27546430006623	0.7999978000298142	2	49	3616882.744	81.25	0.8900088998489082	2	0
64.07546210009605	0.7976319999434054	2	49	3616883.412	100	0.7576886001043022	1	0
64.87309410003945	0.7983358	2	49	3616884.247	93.75	0.7951342002488673	2	0
65.67142989998683	0.7978735999204218	2	49	3616885.116	87.5	0.8662821999751031	2	0
66.46930349990726	0.7995371003635228	1	49	3616885.846	93.75	0.7977815000340343	2	0
67.26884060027078	0.7997049000114202	1	49	3616886.544	93.75	0.6960881999693811	1	0
68.0685455	0.7993925	2	49	3616887.376	100	0.7288279999047518	1	0
68.86793800024316	0.7970163999125361	2	49	3616888.273	87.5	0.8264555996283889	2	0
69.6649544	0.8008918	2	49	3616889.116	81.25	0.8723848001100123	2	0
70.46584620000795	0.7993964999914169	2	49	3616889.893	87.5	0.8480401001870632	2	0
71.26524269999936	0.7993847001343966	2	49	3616890.864	62.5	1.020225299987942	2	0
72.06462740013376	0.7987375999800861	2	49	3616891.545	81.25	0.9016466997563839	2	0
72.86336500011384	0.7988550998270512	2	49	3616892.448	68.75	1.0058778999373317	2	0
73.6622201	0.7987970001995564	2	49	3616893.146	81.25	0.9052023002877831	2	0
74.46101710014045	0.8000448998063803	2	49	3616893.962	81.25	0.9223577999509871	2	0
75.26106199994683	0.8001051000319421	1	0	0	0	0	0	0
76.06116709997877	0.7992072999477386	1	0	0	0	0	0	0
76.86037439992651	0.8004769999533892	2	49	3616896.326	81.25	0.8871210999786854	2	0
77.6608514	0.7997963	2	49	3616897.084	87.5	0.8445097003132105	2	0
78.4606477	0.8009669003076851	2	49	3616897.792	100	0.7529861000366509	1	0
79.26161460019648	0.7988562998361886	2	49	3616898.661	87.5	0.8205927996896207	2	0
80.06047090003267	0.7973654000088573	2	49	3616899.459	87.5	0.8201614	2	0
80.85783630004153	0.7977481000125408	2	49	3616900.206	93.75	0.7696609999984503	2	0
81.65558440005407	0.7995902001857758	2	49	3616901.258	62.5	1.0231980001553893	2	0
82.45517460023984	0.8013873999007046	2	49	3616901.762	100	0.7284141	1	0
83.25656200014055	0.7994582001119852	2	49	3616902.543	93.75	0.7072012997232378	1	0
84.05602020025253	0.7990345996804535	2	49	3616903.445	93.75	0.8104440998286009	2	0
84.85505479993299	0.7980021	2	49	3616904.204	100	0.7699878001585603	1	0
85.65305690001696	0.7990442	2	49	3616905.094	87.5	0.861753	2	0
86.45210110023618	0.7997889998368919	2	49	3616905.788	100	0.7569627999328077	1	0
87.25189010007307	0.8007510998286307	2	49	3616906.586	100	0.7557469001039863	1	0
88.0526412	0.8012502	2	49	3616907.47	87.5	0.8383264001458883	2	0
88.85389140015468	0.7988013001158834	2	49	3616908.261	87.5	0.8278912	2	0
89.65269270027056	0.8003733996301889	2	49	3616909.045	93.75	0.8139172997325659	2	0
90.45306609990075	0.8020467003807425	2	49	3616909.79	100	0.7578390999697149	1	0
91.2551128	0.7996978997252882	2	49	3616910.57	100	0.7364158998243511	1	0
92.05481070000678	0.7974121002480388	2	49	3616911.353	93.75	0.7190558002330363	1	0
92.85222280025482	0.7995720999315381	2	49	3616912.258	87.5	0.8266755999065936	2	0
93.65179490018636	0.7988033997826278	1	0	0	0	0	0	0
94.45059829996899	0.7985400003381073	2	49	3616913.861	87.5	0.8319918001070619	2	0
95.2491383	0.7991316998377442	2	49	3616914.583	100	0.7547488999553025	1	0
96.04827000014484	0.7996312	1	0	0	0	0	0	0
96.84790119994432	0.8012777999974787	2	49	3616916.203	93.75	0.7761156000196934	2	0
97.649179	0.7981207	2	49	3616917.01	93.75	0.7821585000492632	2	0
98.44729970023036	0.8005348998121917	2	49	3616917.888	87.5	0.8619610997848213	2	0
99.24783460004255	0.8004105002619326	2	49	3616918.578	100	0.7513482002541423	1	0
100.04824510030448	0.7999825999140739	2	49	3616919.374	100	0.7472968995571136	1	0
100.84822770021856	0.8019212000072002	2	49	3616920.213	93.75	0.7861285000108182	2	0
101.65014890022576	0.7995889000594616	2	49	3616921.016	93.75	0.7871356997638941	2	0
102.44973780028522	0.7998353997245431	2	49	3616921.88	87.5	0.8515780000016093	2	0
103.24957320000976	0.8008342999964952	2	49	3616922.66	87.5	0.8315703999251127	2	0
104.05040750000626	0.7987563000060618	2	49	3616923.491	87.5	0.8622379000298679	2	0
104.84916380001232	0.7996592000126839	2	49	3616924.348	81.25	0.9201992000453174	2	0
105.648823	0.7984939999878407	2	49	3616925.004	93.75	0.7764289	2	0
106.44731700001284	0.7997252000495791	2	49	3616925.799	93.75	0.7733217999339104	2	0
107.24704220006242	0.8022941001690924	2	49	3616926.736	81.25	0.9104809002019465	2	0
108.04933630023152	0.7984058000147343	2	49	3616927.728	56.25	1.0999364997260273	2	0
108.84774210024625	0.7998678996227682	2	49	3616928.266	87.5	0.8397307996638119	2	0
109.64760999986902	0.8004359002225101	2	49	3616929.021	93.75	0.7948885001242161	2	0
110.44804590009153	0.7997336001135409	2	49	3616929.747	100	0.7205651002004743	1	0
111.24777950020507	0.7990637999027967	2	49	3616930.653	87.5	0.8266616999171674	2	0
112.04684330010787	0.8007050999440253	2	49	3616931.402	93.75	0.7765329000540078	2	0
112.84754840005189	0.7982538002543151	2	49	3616932.188	100	0.7619342999532819	1	0
113.6458022003062	0.7997894999571145	2	49	3616933.057	87.5	0.8326648999936879	2	0
114.44559170026332	0.7998152	2	49	3616933.854	87.5	0.8299869997426867	2	0
115.24540690006688	0.7985280998982489	2	49	3616934.626	93.75	0.8021575999446213	2	0
116.04393499996513	0.8001355002634227	2	49	3616935.52	81.25	0.8972849	2	0
116.84407050022855	0.7989515997469425	2	49	3616936.285	87.5	0.8622604999691248	2	0
117.6430220999755	0.7994687003083527	2	49	3616937.009	93.75	0.7875776002183557	2	0
118.44249080028385	0.7999199996702373	2	49	3616937.847	87.5	0.8261292	2	0
119.24241079995409	0.7981712003238499	2	49	3616938.71	81.25	0.8892872999422252	2	0
120.04058200027794	0.8008706998080015	1	0	0	0	0	0	0
120.84145270008594	0.8005160000175238	2	49	3616940.3	81.25	0.8794358000159264	2	0
121.64196870010346	0.7997928000986576	2	49	3616940.918	93.75	0.6975186001509428	1	0
122.44176150020212	0.7988677998073399	1	0	0	0	0	0	0
123.24062930000946	0.7979671000503004	2	49	3616942.514	93.75	0.6942925001494586	1	0
124.03859640005976	0.7988032000139356	2	49	3616943.361	100	0.7431878000497818	1	0
124.8373996000737	0.7983774999156594	2	49	3616944.269	87.5	0.8524197000078857	2	0
125.63577709998935	0.8009946001693606	2	49	3616945.029	93.75	0.8141776002012193	2	0
126.43677170015872	0.7993962001055479	2	49	3616945.759	100	0.7439099997282028	1	0
127.23616790026426	0.7991918995976448	2	49	3616946.538	100	0.7226711995899677	1	0
128.0353597998619	0.8006593002937734	2	49	3616947.317	93.75	0.7024805000983179	1	0
128.83601910015568	0.8010235000401735	2	49	3616948.039	87.5	0.6239757998846471	1	0
129.63704260019585	0.8005262999795377	2	49	3616948.915	93.75	0.6990856998600066	1	0
130.4375689001754	0.7994169997982681	2	49	3616949.779	100	0.7624268997460604	1	0
131.23698589997366	0.7992342999204993	2	49	3616950.536	100	0.7201152	1	0
132.03622019989416	0.7985095	2	49	3616951.365	100	0.7498248000629246	1	0
132.8347296998836	0.7981658	2	49	3616952.155	100	0.7413918999955058	1	0
133.6328954999335	0.7980423	1	49	3616952.974	100	0.7621966	1	0
134.43093780009076	0.7998202000744641	2	49	3616953.672	87.5	0.6626145001500845	1	0
135.23075800016522	0.7995869996957481	2	49	3616954.618	93.75	0.8085789997130632	2	0
136.03034499986097	0.8002041	2	49	3616955.316	93.75	0.7072507003322244	1	0
136.83054909994826	0.7993018003180623	2	49	3616956.26	87.5	0.8507054001092911	2	0
137.62985090026632	0.8004954997450113	2	49	3616957.105	81.25	0.8959828997030854	2	0
138.43034640001133	0.7996772001497447	2	49	3616957.773	100	0.7639307999052107	1	0
139.23002360016108	0.8014723998494446	2	49	3616958.474	87.5	0.6652516000904143	1	0
140.03149600001052	0.7990073002874851	2	49	3616959.36	100	0.7499370998702943	1	0
140.8305033	0.8009951999410987	2	49	3616960.218	93.75	0.8089719	2	0
141.6314985002391	0.8009589998982847	2	49	3616961.068	87.5	0.8576988000422716	2	0
142.4324575001374	0.8000334999524057	2	49	3616961.916	81.25	0.9048230997286737	2	0
143.2324910000898	0.8005733001045883	2	49	3616962.61	93.75	0.7991154999472201	2	0
144.03306430019438	0.7995144999586046	2	49	3616963.397	93.75	0.7853133999742568	2	0
144.8325788	0.8004807997494936	1	49	3616964.161	100	0.7500144001096487	1	0
145.63305959990248	0.7975743003189564	2	49	3616964.963	100	0.7512764004059136	1	0
146.43063390022144	0.7994471997953951	2	49	3616965.662	87.5	0.6528231999836862	1	0
147.23008110001683	0.7967830998823047	2	49	3616966.484	93.75	0.6753823002800345	1	0
148.02686419989914	0.7997115002945065	2	49	3616967.55	75	0.9446215000934899	2	0
148.82657570019364	0.8009004998020828	2	49	3616968.232	87.5	0.8268172997049987	2	0
149.62747619999573	0.7992056999355555	1	0	0	0	0	0	0
150.42668189993128	0.7998327002860606	2	49	3616969.824	93.75	0.8181125000119209	2	0
151.22651460021734	0.7976232999935746	2	49	3616970.526	100	0.7211368000134826	1	0
152.02413790021092	0.7981867	2	49	3616971.438	87.5	0.8349844	2	0
152.82232460007071	0.7987984	1	0	0	0	0	0	0
153.6211230000481	0.8022801000624895	2	49	3616973.046	87.5	0.8457159	2	0
154.4234031001106	0.7995694000273943	2	49	3616973.745	100	0.7428318001329899	1	0
155.22297250013798	0.8003341001458466	2	49	3616974.583	93.75	0.7817178000696003	2	0
156.02330660028383	0.7995612998493016	1	0	0	0	0	0	0
156.82286790013313	0.8003449998795986	2	49	3616976.149	100	0.7472847998142242	1	0
157.62321290001273	0.7984933000989258	2	49	3616976.924	100	0.7218968998640776	1	0
158.42170620011166	0.8016305998899043	2	49	3616977.727	100	0.7260512998327613	1	0
159.22333680000156	0.8017938	2	49	3616978.557	100	0.7544209002517164	1	0
160.02513060020283	0.7997993999160826	2	49	3616979.317	93.75	0.7127820998430252	1	0
160.8249300001189	0.7985227997414768	2	49	3616980.006	81.25	0.6020174999721348	1	0
161.6234527998604	0.7997063002549112	2	49	3616981.016	93.75	0.8136478001251817	2	0
162.4231591001153	0.7974948999471962	2	49	3616981.752	100	0.7499405997805297	1	0
163.2206540000625	0.7989417999051511	2	49	3616982.434	87.5	0.6344526000320911	1	0
164.01959579996765	0.7989608999341726	2	49	3616983.395	93.75	0.7964902999810874	2	0
164.81855669990182	0.7975359000265598	2	49	3616984.009	81.25	0.6117585003376007	1	0
165.61609259992838	0.7995362002402544	2	49	3616984.896	93.75	0.7010928001254797	1	0
166.41562880016863	0.7988165998831391	2	49	3616985.675	93.75	0.6804355001077056	1	0
167.21444540005177	0.8012947998940945	1	0	0	0	0	0	0
168.01574019994587	0.7999036000110209	2	49	3616987.393	93.75	0.7983539002016187	2	0
168.8156437999569	0.7989918999373913	2	49	3616988.289	81.25	0.8944477001205087	2	0
169.61463569989428	0.7976435	2	49	3616989.203	68.75	1.0096440999768674	2	0
170.4122792002745	0.7991301999427378	2	49	3616989.813	87.5	0.8219045996665955	2	0
171.21140940021724	0.7999505000188947	2	49	3616990.69	81.25	0.8998984000645578	2	0
172.01135990023613	0.8005999997258186	2	49	3616991.469	81.25	0.8791996999643743	2	0
172.81195989996195	0.8001178000122309	1	0	0	0	0	0	0
173.61207769997418	0.8007914000190794	1	49	3616993.058	87.5	0.8671730002388358	2	0
174.41286909999326	0.7991761001758277	2	49	3616993.758	100	0.7660737000405788	1	0
175.2120452001691	0.7990733999758959	2	49	3616994.561	100	0.7701143999584019	1	0
176.01111860014498	0.7991307997144759	2	49	3616995.399	93.75	0.8094782000407577	2	0
176.81024939985946	0.7989655002020299	2	49	3616996.254	87.5	0.8653558003716171	2	0
177.6092149000615	0.8008352001197636	2	49	3616996.967	93.75	0.7792171002365649	2	0
178.41005010018125	0.8001680998131633	2	49	3616997.791	93.75	0.8025289997458458	2	0
179.21021819999442	0.8009767001494765	2	49	3616998.557	100	0.7682773000560701	1	0
180.0111949001439	0.8002132000401616	2	49	3616999.342	100	0.7524788998998702	1	0
180.81140810018405	0.7994097000919282	2	49	3617000.192	93.75	0.8022708999924362	2	0
181.61081780027598	0.7985384999774396	2	49	3617001.006	93.75	0.8167840000241995	2	0
182.40935630025342	0.7989506996236742	2	49	3617001.901	81.25	0.9128841999918222	2	0
183.2083069998771	0.7999388002790511	1	0	0	0	0	0	0
184.00824580015615	0.7976462999358773	2	49	3617003.504	81.25	0.9173388001509011	2	0
184.80589210009202	0.8019713000394404	2	49	3617004.385	68.75	1.000566199887544	2	0
185.60786340013146	0.8013220997527242	1	49	3617005.06	81.25	0.8730507	2	0
186.4091854998842	0.8007367001846433	2	49	3617005.813	87.5	0.8249114002101123	2	0
187.20992220006883	0.8018419998697937	2	49	3617006.466	93.75	0.6776372999884188	1	0
188.01176419993863	0.7991148000583053	1	49	3617007.243	87.5	0.6527351001277566	1	0
188.81087899999693	0.7984910998493433	2	49	3617008.003	81.25	0.6138027999550104	1	0
189.60937009984627	0.7989352000877261	2	49	3617009.036	87.5	0.8476426000706851	2	0
190.4083053	0.7992394999600947	2	49	3617009.744	100	0.7566768	1	0
191.2075447998941	0.7993695000186563	2	49	3617010.617	87.5	0.8302066000178456	2	0
192.00691429991275	0.7990466002374887	1	0	0	0	0	0	0
192.80596090015024	0.7997190998867154	2	49	3617012.263	81.25	0.8778949999250472	2	0
193.60568000003695	0.7984425001777709	2	49	3617013.011	87.5	0.8269897000864148	2	0
194.40412250021473	0.7993977996520698	2	49	3617013.758	93.75	0.7754659997299314	2	0
195.2035202998668	0.8004095000214875	2	49	3617014.669	81.25	0.8865499002858996	2	0
196.00392979988828	0.8019084	2	49	3617015.379	93.75	0.7960771000944078	2	0
196.80583820026368	0.8014122997410595	2	49	3617016.095	93.75	0.7103336998261511	1	0
197.60725050000474	0.8004108001478016	2	49	3617016.879	93.75	0.6927728001028299	1	0
198.40766130015254	0.7997972001321614	2	49	3617017.706	93.75	0.7193570998497307	1	0
199.2074585002847	0.7973170997574925	2	49	3617018.48	93.75	0.6935641998425126	1	0
200.0047756000422	0.8019587001763284	2	49	3617019.298	93.75	0.7140215002000332	1	0
200.80673430021852	0.7993159997276962	1	49	3617020.237	87.5	0.8514462998136878	2	0
201.60605029994622	0.8003438003361225	2	49	3617020.855	87.5	0.6704982002265751	1	0
202.40639410028234	0.8004584	2	49	3617021.767	93.75	0.7816131999716163	2	0
203.20685249986127	0.8015941004268825	2	49	3617022.626	87.5	0.8406935003586113	2	0
204.00844660028815	0.7990914997644722	2	49	3617023.432	87.5	0.8446321999654174	2	0
204.80753810005262	0.7973364000208676	2	49	3617024.134	100	0.7477426999248564	1	0
205.6048745000735	0.7980883000418544	2	49	3617025.068	81.25	0.8840537997893989	2	0
206.40296280011535	0.7988756997510791	2	49	3617025.751	100	0.7692682	1	0
207.20183849986643	0.7974316002801061	2	49	3617026.611	87.5	0.8304743003100157	2	0
207.99927010014653	0.8010507998988032	2	49	3617027.545	75	0.9671172	2	0
208.80032090004534	0.8005388998426497	2	49	3617028.185	93.75	0.8061818000860512	2	0
209.60085979988798	0.7998122000135481	2	49	3617029.075	81.25	0.8954108003526926	2	0
210.40067199990153	0.8001144002191722	2	49	3617029.832	87.5	0.8525815000757575	2	0
211.2007864001207	0.8013502000831068	2	49	3617030.479	93.75	0.6990732997655869	1	0
212.0021366002038	0.7998641999438405	2	49	3617031.223	87.5	0.6423035999760032	1	0
212.80200080014765	0.7983280001208186	1	49	3617032.057	93.75	0.6762589998543262	1	0
213.60032880026847	0.8015096997842193	2	49	3617032.821	87.5	0.6419989997521043	1	0
214.4018385000527	0.7991976998746395	2	49	3617033.65	93.75	0.6698858002200723	1	0
215.20103619992733	0.7997448001988232	2	49	3617034.408	87.5	0.6286273002624512	1	0
216.00078100012615	0.7987624001689255	2	49	3617035.444	87.5	0.8639759998768568	2	0
216.79954340029508	0.7984202997758985	2	49	3617036.191	93.75	0.8130935998633504	2	0
217.59796370007098	0.7983404002152383	1	0	0	0	0	0	0
218.39630410028622	0.7992234998382628	2	49	3617037.875	81.25	0.9002383998595178	2	0
219.19552760012448	0.7992663998156786	2	49	3617038.539	100	0.7650373000651598	1	0
219.99479399994016	0.8015057002194226	2	49	3617039.438	87.5	0.8641341	2	0
220.79629970015958	0.7999824997968972	2	49	3617040.254	81.25	0.8792753997258842	2	0
221.59628219995648	0.7984613999724388	2	49	3617040.909	100	0.7334769000299275	1	0
222.39474359992892	0.7990045002661645	1	49	3617041.721	100	0.747533	1	0
223.19374810019508	0.7985135996714234	2	49	3617042.39	81.25	0.6171540999785066	1	0
223.9922616998665	0.8026570002548397	2	49	3617043.277	93.75	0.7054722001776099	1	0
224.79491870012134	0.8004120998084545	2	49	3617044.139	100	0.7649396997876465	1	0
225.5953307999298	0.7983145001344383	2	49	3617045.12	75	0.9455686002038419	2	0
226.39364530006424	0.7977284998632967	2	49	3617046.142	43.75	1.1692270999774337	2	0
227.19137379992753	0.7998453001491725	2	49	3617046.536	100	0.7654221002012491	1	0
227.9912191000767	0.7999782999977469	2	49	3617047.148	81.25	0.5775144998915493	1	0
228.79119740007445	0.7997785001061857	2	49	3617048.074	93.75	0.7035551997832954	1	0
229.59097590018064	0.8007473000325263	2	49	3617049.048	81.25	0.8779992996715009	2	0
230.39172320021316	0.799172	2	49	3617049.709	100	0.7381180999800563	1	0
231.19089520024136	0.7993271998129785	2	49	3617050.352	81.25	0.5821020998992026	1	0
231.99022240005434	0.7991416999138892	2	49	3617051.22	87.5	0.6506769000552595	1	0
232.78936409996822	0.7988291000947356	2	49	3617052.157	93.75	0.7890326	2	0
233.58819320006296	0.7973997	2	49	3617052.994	87.5	0.8269698000513017	2	0
234.38559290021658	0.7975889998488128	2	49	3617053.837	81.25	0.8722844999283552	2	0
235.1831819000654	0.7985868998803198	2	49	3617054.596	87.5	0.8339700000360608	2	0
235.9817687999457	0.8006080002523959	2	49	3617055.555	68.75	0.9942781999707222	2	0
236.7823768001981	0.7994357999414206	2	49	3617056.276	81.25	0.915332	2	0
237.58181260013953	0.7982558999210596	2	49	3617057.05	81.25	0.8890884998254478	2	0
238.3800685000606	0.7984128999523818	1	0	0	0	0	0	0
239.17848140001297	0.7999396999366581	2	49	3617058.686	75	0.9287137999199331	2	0
239.97842109994963	0.8003022000193596	2	49	3617059.421	87.5	0.8640517	2	0
240.7787233	0.7983119	2	49	3617060.204	87.5	0.8461973001249135	2	0
241.5770351998508	0.7979564000852406	2	49	3617060.929	93.75	0.7731763003394008	2	0
242.37499159993604	0.8023641002364457	2	49	3617061.885	75	0.9313372001051903	2	0
243.17735570017248	0.7977080997079611	2	49	3617062.626	81.25	0.8701341999694705	2	0
243.97506379988045	0.7992408000864089	2	49	3617063.532	68.75	0.9781777001917362	2	0
244.77430459996685	0.8000955	2	49	3617064.181	87.5	0.8280052999034524	2	0
245.5744000999257	0.7990216999314725	2	49	3617064.98	87.5	0.8269104002974927	2	0
246.37342179985717	0.7979217004030943	1	0	0	0	0	0	0
247.17134350026026	0.8000983996316791	2	49	3617066.592	87.5	0.8420057999901474	2	0
247.97144189989194	0.8014538	2	49	3617067.267	93.75	0.7170273000374436	1	0
248.77289570029825	0.8001125999726355	2	49	3617068.218	87.5	0.8664912995882332	2	0
249.57300830027089	0.7988302996382117	2	49	3617069.054	81.25	0.9026076998561621	2	0
250.3718385999091	0.8003913001157343	2	49	3617069.747	93.75	0.7968673999421299	2	0
251.17222990002483	0.7994555998593569	2	49	3617070.534	93.75	0.7834554	2	0
251.9716854998842	0.7982834000140429	2	49	3617071.278	100	0.7278827000409365	1	0
252.76996889989823	0.8033042000606656	2	49	3617072.009	87.5	0.6598744001239538	1	0
253.5732730999589	0.7993276002816856	1	49	3617072.805	87.5	0.6533818999305367	1	0
254.37260070024058	0.7989109000191092	2	49	3617073.688	100	0.7370106996968389	1	0
255.1715116002597	0.7991573000326753	1	0	0	0	0	0	0
255.97066890029237	0.8003211999312043	2	49	3617075.235	93.75	0.6855789	1	0
256.77099010022357	0.7988690999336541	2	49	3617076.119	100	0.7688365997746587	1	0
257.5698592001572	0.7990321000106633	2	49	3617076.973	87.5	0.8246784997172654	2	0
258.3688913001679	0.7986620999872684	2	49	3617077.735	93.75	0.7869055001065135	2	0
259.16755340015516	0.8017883999273181	2	49	3617078.533	93.75	0.7862989	2	0
259.9693418000825	0.8003206998109818	2	49	3617079.39	87.5	0.8416701997630298	2	0
260.76966249989346	0.8003557003103197	2	49	3617080.211	87.5	0.8624122999608517	2	0
261.5700182002038	0.8009506999514997	1	0	0	0	0	0	0
262.3709689001553	0.7985867997631431	2	49	3617081.76	93.75	0.8103565000928938	2	0
263.1695556999184	0.7985859	2	49	3617082.581	87.5	0.8323675999417901	2	0
263.96814160002396	0.7976866001263261	2	49	3617083.294	100	0.7467407	1	0
264.7658282001503	0.7981314999051392	2	49	3617084.069	100	0.7244140999391675	1	0
265.5639597000554	0.7981202001683414	2	49	3617085.03	81.25	0.8877222002483904	2	0
266.36207990022376	0.7993339998647571	2	49	3617085.803	87.5	0.8622838999144733	2	0
267.1614139000885	0.8013395997695625	2	49	3617086.44	93.75	0.6994954999536276	1	0
267.9627534998581	0.7983002001419663	2	49	3617087.319	93.75	0.7773520001210272	2	0
268.76105370000005	0.7986461999826133	2	49	3617088.202	87.5	0.8621517000719905	2	0
269.55969989998266	0.7991567999124527	2	49	3617089.006	87.5	0.8676829999312758	2	0
270.3588566998951	0.8004374001175165	2	49	3617089.713	93.75	0.7758584003895521	2	0
271.15929410001263	0.7977603999897838	2	49	3617090.532	93.75	0.7941899001598358	2	0
271.9570545000024	0.7990822000429034	1	0	0	0	0	0	0
272.7561367000453	0.8016102002002299	2	49	3617092.062	100	0.7270587999373674	1	0
273.55774690024555	0.8015158	2	49	3617092.861	100	0.7248640996403992	1	0
274.35926270019263	0.7994413999840617	2	49	3617093.877	75	0.9391584	2	0
275.1587041001767	0.7989509999752045	2	49	3617094.539	93.75	0.8017672998830676	2	0
275.9576551001519	0.8008888000622392	2	49	3617095.378	87.5	0.8415792998857796	2	0
276.75854390021414	0.8012021998874843	2	49	3617096.09	100	0.7528860997408628	1	0
277.5597461001016	0.7984217000193894	2	49	3617096.976	87.5	0.8374991999007761	2	0
278.3581678	0.7993652001023293	2	49	3617097.782	87.5	0.8453208999708295	2	0
279.15753300022334	0.8013920998200774	2	49	3617098.485	100	0.7486514998599887	1	0
279.9589251000434	0.8006026	2	49	3617099.31	93.75	0.7723436001688242	2	0
280.75952770002186	0.7994152000173926	2	49	3617100.172	87.5	0.8334745	2	0
281.55894290003926	0.7997073	2	49	3617101	87.5	0.8627034998498857	2	0
282.35865020006895	0.7984182	2	49	3617101.738	93.75	0.8006829000078142	2	0
283.1570684001781	0.7992995	2	49	3617102.613	81.25	0.8774426998570561	2	0
283.9563679001294	0.7993426998145878	1	0	0	0	0	0	0
284.7557106	0.7990002003498375	2	49	3617104.3	75	0.9658682001754642	2	0
285.55471080029383	0.7981662997044623	2	49	3617105.079	75	0.9451969997026026	2	0
286.3528770999983	0.7984214001335204	1	49	3617105.835	81.25	0.9036986	2	0
287.1512985001318	0.7983208000659943	2	49	3617106.484	100	0.7543097	1	0
287.9496193001978	0.7994826999492943	2	49	3617107.466	75	0.9379616999067366	2	0
288.7491020001471	0.7983502997085452	2	49	3617108.132	93.75	0.8038337999023497	2	0
289.54745229985565	0.7982434001751244	2	49	3617109.075	75	0.9484077002853155	2	0
290.3456957000308	0.7982911001890898	1	49	3617109.692	100	0.7678165999241173	1	0
291.14398680021986	0.7974126	2	49	3617110.451	100	0.7287379996851087	1	0
291.94139940012246	0.7993783997371793	2	49	3617111.319	93.75	0.7992607997730374	2	0
292.74077779985964	0.7986550000496209	2	49	3617112.041	93.75	0.721234	1	0
293.53943279990926	0.8000813000835478	2	49	3617112.861	100	0.7424445999786258	1	0
294.3395140999928	0.7987157	2	49	3617113.688	100	0.7692219000309706	1	0
295.13822979992256	0.7987211002036929	2	49	3617114.52	93.75	0.8028311002999544	2	0
295.93695090012625	0.7982692997902632	2	49	3617115.432	81.25	0.9157929001376033	2	0
296.7352201999165	0.7974375002086163	1	0	0	0	0	0	0
297.5326577001251	0.8006841000169516	2	49	3617117.027	81.25	0.9152467	2	0
298.3333418001421	0.7992746001109481	2	49	3617117.691	93.75	0.7784372000023723	2	0
299.1326164	0.7999803996644914	1	49	3617118.489	93.75	0.777187	2	0
299.9325967999175	0.7984593003056943	1	49	3617119.193	93.75	0.6818689000792801	1	0
300.7310561002232	0.7989983	2	49	3617120.068	100	0.7582093998789787	1	0
301.53005440020934	0.8001898000948131	2	49	3617121.057	75	0.9482737998478115	2	0
302.33024420030415	0.7990632997825742	2	49	3617121.757	87.5	0.8477424997836351	2	0
303.1293075000867	0.8010772000998259	2	49	3617122.597	81.25	0.8892803997732699	2	0
303.93038470018655	0.7994451997801661	2	49	3617123.321	93.75	0.8122892999090254	2	0
304.7298298999667	0.8000055002048612	2	49	3617124.062	100	0.7531560999341309	1	0
305.5298354001716	0.7974747000262141	2	49	3617124.869	100	0.7601553997956216	1	0
306.3273101001978	0.7998306998051703	2	49	3617125.544	87.5	0.6376712000928819	1	0
307.12714080000296	0.7989548002369702	2	49	3617126.355	87.5	0.6490813000127673	1	0
307.92609560023993	0.8004187997430563	1	49	3617127.169	87.5	0.6642851000651717	1	0
308.7265144	0.7974844998680055	2	49	3617128.177	81.25	0.8719092002138495	2	0
309.5239989	0.7998968004249036	2	49	3617128.823	93.75	0.7203171001747251	1	0
310.3238957002759	0.8008074	2	49	3617129.8	81.25	0.8978173998184502	2	0
311.12470309995115	0.7980154999531806	2	49	3617130.616	81.25	0.9127517002634704	2	0
311.92271859990433	0.7988896002061665	2	49	3617131.462	75	0.9603373003192246	2	0
312.7216082001105	0.8023633998818696	2	49	3617132.166	87.5	0.8651359998621047	2	0
313.52397159999236	0.8004398001357913	1	0	0	0	0	0	0
314.32441140012816	0.8020370998419821	1	0	0	0	0	0	0
315.12644849997014	0.7988104000687599	2	49	3617134.539	87.5	0.8340115998871624	2	0
315.9252589000389	0.7979987999424338	2	49	3617135.297	93.75	0.7932367	2	0
316.72325769998133	0.7988423001952469	2	49	3617136.083	93.75	0.7812965	2	0
317.5221000001766	0.8002867000177503	2	49	3617136.935	87.5	0.8342824997380376	2	0
318.32238670019433	0.8004601998254657	2	49	3617137.671	100	0.7700294000096619	1	0
319.1228469000198	0.8000937001779675	2	49	3617138.438	100	0.7366120000369847	1	0
319.92294060019776	0.8001483	2	49	3617139.236	100	0.7344324	1	0
320.7230889	0.8012712001800537	1	49	3617139.943	87.5	0.6414071000181139	1	0
321.52436010027304	0.8002675	1	49	3617140.812	93.75	0.7092478	1	0
322.3246276001446	0.7997576999478042	2	49	3617141.539	87.5	0.6360666998662055	1	0
323.1243853000924	0.8004382001236081	2	49	3617142.515	93.75	0.8123308001086116	2	0
323.9248235	0.7995486999861896	2	49	3617143.052	75	0.5479409997351468	1	0
324.7243722002022	0.7996070999652147	1	49	3617143.817	68.75	0.5136106	1	0
325.5239793001674	0.7990529998205602	2	49	3617144.862	100	0.7593298000283539	1	0
326.3230323	0.7980764000676572	2	49	3617145.764	87.5	0.8619785001501441	2	0
327.12110870005563	0.7970344	2	49	3617146.501	93.75	0.8008872	2	0
327.9181431001052	0.7997840000316501	2	49	3617147.36	87.5	0.8633387	2	0
328.7179271001369	0.8003933001309633	2	49	3617148.07	93.75	0.7731487997807562	2	0
329.51832040026784	0.7989933998323977	2	49	3617148.832	100	0.7345526996068656	1	0
330.31731380010024	0.8006033999845386	2	49	3617149.828	75	0.9315023	2	0
331.1179172000848	0.7999807000160217	1	0	0	0	0	0	0
331.9178979001008	0.8011901997961104	2	49	3617151.213	93.75	0.7159408000297844	1	0
332.7190880998969	0.8029749002307653	2	49	3617152.019	93.75	0.7207642002031207	1	0
333.5220630001277	0.7983869998715818	2	49	3617152.883	93.75	0.7818633001297712	2	0
334.32044999999925	0.7975472002290189	2	49	3617153.643	100	0.7437527002766728	1	0
335.1179972002283	0.7986428998410702	1	0	0	0	0	0	0
335.91664010006934	0.7999460999853909	2	49	3617155.453	75	0.9573770998977125	2	0
336.71658620005473	0.7983383000828326	2	49	3617156.175	81.25	0.8795011001639068	2	0
337.51492450013757	0.7980805998668075	2	49	3617156.836	100	0.7420863998122513	1	0
338.3130051000044	0.7975162998773158	2	49	3617157.623	100	0.7316510998643935	1	0
339.1105213998817	0.7992646000348032	2	49	3617158.397	93.75	0.7080719000659883	1	0
339.9097859999165	0.7979840002954006	2	49	3617159.269	93.75	0.7801733002997935	2	0
340.7077700002119	0.7975318999961019	2	49	3617160.045	100	0.7586163999512792	1	0
341.5053019	0.7992584998719394	2	49	3617160.77	93.75	0.6859712996520102	1	0
342.30456040007994	0.7999863000586629	2	49	3617161.624	100	0.7410810999572277	1	0
343.1045467001386	0.7994057000614703	2	49	3617162.481	93.75	0.7981567000970244	2	0
343.90395240020007	0.7995317997410893	2	49	3617163.228	100	0.7452512998133898	1	0
344.70348419994116	0.8024997999891639	1	0	0	0	0	0	0
345.5059839999303	0.7991369003430009	2	49	3617164.946	87.5	0.8616979	2	0
346.3051209002733	0.7988245999440551	2	49	3617165.756	81.25	0.8724373998120427	2	0
347.1039455002174	0.8021241999231279	2	49	3617166.432	100	0.7491407999768853	1	0
347.9060697001405	0.7992237997241318	2	49	3617167.218	100	0.7332550999708474	1	0
348.70529349986464	0.7983202002942562	1	0	0	0	0	0	0
349.5036137001589	0.7989489999599755	2	49	3617168.922	87.5	0.8393342001363635	2	0
350.30256270011887	0.7992679998278618	2	49	3617169.615	100	0.7337146997451782	1	0
351.10183069994673	0.7982916999608278	2	49	3617170.51	87.5	0.8291573002934456	2	0
351.90012239990756	0.7989574000239372	2	49	3617171.435	75	0.9556746003217995	2	0
352.6990797999315	0.8005907000042498	2	49	3617172.174	81.25	0.8966223001480103	2	0
353.49967049993575	0.7998303002677858	2	49	3617172.949	87.5	0.8705421001650393	2	0
354.29950080020353	0.7981015997938812	2	49	3617173.671	93.75	0.7931089997291565	2	0
355.0976023999974	0.8010017001070082	2	49	3617174.389	93.75	0.7126995	1	0
355.8986041001044	0.8016094001941383	2	49	3617175.013	75	0.5360436998307705	1	0
356.70021350029856	0.7988070999272168	2	49	3617175.833	75	0.5544723998755217	1	0
357.4990206002258	0.7976261000148952	1	49	3617176.713	87.5	0.6350260996259749	1	0
358.2966467002407	0.8007412999868393	1	0	0	0	0	0	0
359.0973880002275	0.8017281997017562	2	49	3617178.43	100	0.7534692	1	0
359.89911619992927	0.8002785001881421	2	49	3617179.357	81.25	0.8786983001045883	2	0
360.6993947001174	0.7973834001459181	2	49	3617180.224	75	0.9463153001852334	2	0
361.4967781002633	0.7993583995848894	2	49	3617180.96	81.25	0.8844303996302187	2	0
362.2961364998482	0.8000480001792312	2	49	3617181.613	100	0.7385771004483104	1	0
363.09618450002745	0.798285	2	49	3617182.358	93.75	0.6831680000759661	1	0
363.8944695000537	0.8019396997988224	2	49	3617183.237	100	0.7633271999657154	1	0
364.6964091998525	0.8011429002508521	2	49	3617184.174	81.25	0.8985717003233731	2	0
365.49755210010335	0.7986976001411676	2	49	3617184.826	100	0.7493981001898646	1	0
366.2962497002445	0.7987223	2	49	3617185.672	93.75	0.7965018996037543	2	0
367.0949719999917	0.7983380001969635	2	49	3617186.72	62.5	1.046292600221932	2	0
367.89331000018865	0.7990759997628629	2	49	3617187.65	43.75	1.1776038999669254	2	0
368.6923859999515	0.7981887999922037	2	49	3617188.406	50	1.1344842999242246	2	0
369.4905747999437	0.7993944999761879	2	49	3617188.89	93.75	0.8202571999281645	2	0
370.2899692999199	0.7991105001419783	2	49	3617189.747	81.25	0.8780298000201583	2	0
371.0890798000619	0.8006032002158463	1	0	0	0	0	0	0
371.8896830002777	0.7993779997341335	2	49	3617191.473	68.75	1.0043642	2	0
372.68906100001186	0.8000981998629868	2	49	3617192.282	68.75	1.0141823999583721	2	0
373.48915919987485	0.7999801002442837	2	49	3617193.016	75	0.9476899	2	0
374.28913930011913	0.7994281998835504	2	49	3617193.789	75	0.9210704998113215	2	0
375.0885675000027	0.8009378998540342	2	49	3617194.523	87.5	0.8559861001558602	2	0
375.8895053998567	0.7990906001068652	1	49	3617195.348	81.25	0.8796620001085103	2	0
376.6885959999636	0.7987870001234114	1	0	0	0	0	0	0
377.487383	0.8001904999837279	2	49	3617196.863	93.75	0.7970439000055194	2	0
378.2875735000707	0.8001168	1	0	0	0	0	0	0
379.08769030030817	0.8004458998329937	1	0	0	0	0	0	0
379.88813620014116	0.7991431001573801	2	49	3617199.291	87.5	0.8242083000950515	2	0
380.68727930029854	0.7994557996280491	2	49	3617200.11	87.5	0.8437113999389112	2	0
381.4867350999266	0.8004378001205623	2	49	3617200.95	81.25	0.8842671001330018	2	0
382.28717290004715	0.8001373000442982	2	49	3617201.69	87.5	0.8245362997986376	2	0
383.08731020009145	0.8005674001760781	2	49	3617202.448	93.75	0.7820220999419689	2	0
383.88787760026753	0.7988914996385574	1	0	0	0	0	0	0
384.6867690999061	0.8005065000616014	2	49	3617204.106	87.5	0.8408420002087951	2	0
385.4872755999677	0.7991021000780165	2	49	3617205.014	75	0.9477961002849042	2	0
386.2863777000457	0.7998167001642287	2	49	3617205.678	93.75	0.8132183998823166	2	0
387.08619440020993	0.8001302997581661	2	49	3617206.423	100	0.7584255998954177	1	0
387.8863246999681	0.8007926000282168	2	49	3617207.191	100	0.7256070002913475	1	0
388.6871172999963	0.8009752002544701	2	49	3617207.99	100	0.7244580001570284	1	0
389.4880925002508	0.7989973998628557	2	49	3617209.007	75	0.9397915997542441	2	0
390.28708990011364	0.7974876998923719	2	49	3617209.752	81.25	0.8863857998512685	2	0
391.0845776	0.7970317001454532	2	49	3617210.375	93.75	0.7112229000777006	1	0
391.88160930015147	0.7945535997860134	2	49	3617211.111	87.5	0.6506404997780919	1	0
392.6761628999375	0.7985538002103567	2	49	3617211.99	100	0.7350205001421273	1	0
393.47471670014784	0.7983475001528859	1	0	0	0	0	0	0
394.2730642003007	0.7996518998406827	2	49	3617213.718	87.5	0.8666147999465466	2	0
395.0727161001414	0.7975491997785866	2	49	3617214.453	93.75	0.8010319997556508	2	0
395.8702653	0.8020757003687322	2	49	3617215.236	93.75	0.7871644	2	0
396.6723410002887	0.7987490999512374	2	49	3617216.031	93.75	0.7796246996149421	2	0
397.47109010023996	0.7985366997309029	2	49	3617217.059	68.75	1.0094878	2	0
398.26962679997087	0.7990582003258169	1	49	3617217.776	75	0.9280754001811147	2	0
399.0686850002967	0.7987530999816954	2	0	0	0	0	0	0
399.8674381002784	0.7978210998699069	2	49	3617219.219	93.75	0.7726066997274756	2	0
400.6652592001483	0.7994657000526786	2	49	3617219.818	81.25	0.5737364999949932	1	0
401.46472490020096	0.7989314999431372	2	49	3617220.589	75	0.5451654996722937	1	0
402.2636564001441	0.8014334999024868	1	49	3617221.426	81.25	0.5833389000035822	1	0
403.0650899000466	0.7993228998966515	1	49	3617222.374	100	0.7298297001980245	1	0
403.86441279994324	0.7996030999347568	2	49	3617223.337	81.25	0.8935328000225127	2	0
404.6640159	0.7992434999905527	2	49	3617224.157	81.25	0.9141613002866507	2	0
405.46325939986855	0.8015316003002226	2	49	3617224.828	93.75	0.7857806	2	0
406.26479100016877	0.8001866997219622	2	49	3617225.541	93.75	0.6975905997678638	1	0
407.06497769989073	0.8001321000047028	2	49	3617226.308	87.5	0.6643121000379324	1	0
407.86510979989544	0.7991168000735343	2	49	3617227.1	87.5	0.6562630003318191	1	0
408.66422659996897	0.7987031	2	49	3617227.874	87.5	0.6309116999618709	1	0
409.4629297000356	0.8000254002399743	2	49	3617228.61	75	0.5681491000577807	1	0
410.2629551002756	0.7987464996986091	2	49	3617229.414	81.25	0.5723728998564184	1	0
411.0617015999742	0.8030619001947343	2	49	3617230.514	81.25	0.8736959001980722	2	0
411.8647635001689	0.8003042000345886	2	49	3617231.328	81.25	0.8844488998875022	2	0
412.6650677002035	0.7983605996705592	2	49	3617232.078	87.5	0.8342062998563051	2	0
413.46342829987407	0.7989094001241028	2	49	3617233.068	62.5	1.0258045000955462	2	0
414.26233769999817	0.7979023000225425	2	49	3617233.59	100	0.7488729	1	0
415.0602400000207	0.7985165999270976	1	49	3617234.377	100	0.7377586	1	0
415.8587565999478	0.7997767999768257	1	0	0	0	0	0	0
416.65853339992464	0.8004090003669262	2	49	3617235.96	100	0.7222238001413643	1	0
417.45894240029156	0.7992992997169495	2	49	3617236.715	93.75	0.6774399	1	0
418.2582417000085	0.8009385000914335	2	49	3617237.507	87.5	0.6701922002248466	1	0
419.05918020009995	0.7998266997747123	2	49	3617238.359	100	0.7214803998358548	1	0
419.85900689987466	0.7994199004024267	2	49	3617239.136	93.75	0.6982315	1	0
420.6584268002771	0.7993748998269439	1	49	3617240.012	93.75	0.7750405999831855	2	0
421.4578017	0.7979318001307547	2	49	3617241.189	50	1.1527923000976443	2	0
422.2557335002348	0.7987917000427842	2	49	3617241.68	87.5	0.8459759997203946	2	0
423.05452520027757	0.7976201996207237	2	49	3617242.499	87.5	0.8652345	2	0
423.8521453998983	0.7991714	2	49	3617243.178	100	0.7475217999890447	1	0
424.65131680015475	0.8001466998830438	1	49	3617244.017	93.75	0.7865027999505401	2	0
425.4514635000378	0.7992004998959601	2	49	3617245.004	68.75	0.9734082999639213	2	0
426.25066399993375	0.8011603001505136	2	49	3617245.712	81.25	0.8830524999648333	2	0
427.05182430008426	0.7998179998248816	2	49	3617246.403	93.75	0.7728177001699805	2	0
427.85164229990914	0.7983764000236988	2	49	3617247.232	93.75	0.8011187999509275	2	0
428.65001869993284	0.7989730001427233	2	49	3617248.024	93.75	0.7948345001786947	2	0
429.44899170007557	0.7983522000722587	2	49	3617248.931	81.25	0.9028708999976516	2	0
430.2473439001478	0.7991182999685407	2	49	3617249.691	87.5	0.8644727999344468	2	0
431.04646220011637	0.7980744000524282	2	49	3617250.441	93.75	0.8156738998368382	2	0
431.8445366001688	0.7980256997980177	1	49	3617251.293	87.5	0.8693858999758959	2	0
432.6425622999668	0.8005448998883367	2	49	3617251.921	93.75	0.6993518001399934	1	0
433.44310719985515	0.7988089001737535	2	49	3617252.699	93.75	0.6767439004033804	1	0
434.2419161000289	0.7993503999896348	2	49	3617253.471	87.5	0.6501099	1	0
435.04126650001854	0.7982264999300241	1	0	0	0	0	0	0
435.83949299994856	0.7976935999467969	2	49	3617255.359	75	0.9406058001331985	2	0
436.63718659989536	0.7965862001292408	2	49	3617256.014	93.75	0.7976685999892652	2	0
437.4337728000246	0.8020560001023114	2	49	3617256.827	93.75	0.8146620001643896	2	0
438.2358288001269	0.7989118997938931	2	49	3617257.647	87.5	0.8326424998231232	2	0
439.0347406999208	0.7994600003585219	1	0	0	0	0	0	0
439.8342007002793	0.8011522996239364	2	49	3617259.352	75	0.9392015999183059	2	0
440.63535299990326	0.7979427	2	49	3617260.183	68.75	0.9689207002520561	2	0
441.43329570023343	0.7994220997206867	2	49	3617260.858	87.5	0.8463369999080896	2	0
442.2327177999541	0.7991369003430009	2	49	3617261.469	87.5	0.6574927000328898	1	0
443.0318547002971	0.7997961998917162	1	49	3617262.186	81.25	0.5752634997479618	1	0
443.83165090018883	0.7978018997237086	2	49	3617263.12	93.75	0.7090936000458896	1	0
444.62945279991254	0.7985268	1	49	3617264.013	93.75	0.8048050999641418	2	0
445.42797960015014	0.7998760999180377	2	49	3617265.039	62.5	1.0325318	2	0
446.2278557000682	0.7998425	2	49	3617265.761	75	0.9543578000739217	2	0
447.0276982	0.7995735998265445	2	49	3617266.535	75	0.9284961000084877	2	0
447.8272718000226	0.7989123999141157	2	49	3617267.196	93.75	0.7899501998908818	2	0
448.6261841999367	0.7982962001115084	1	49	3617268.015	93.75	0.8103449000045657	2	0
449.4244804000482	0.7989536002278328	2	49	3617268.776	93.75	0.7728030001744628	2	0
450.22343400027603	0.7979429997503757	2	49	3617269.451	87.5	0.6489314995706081	1	0
451.0213770000264	0.7994122002273798	2	49	3617270.219	81.25	0.6192709002643824	1	0
451.8207892002538	0.8010726999491453	2	49	3617271.08	93.75	0.6805012999102473	1	0
452.62186190020293	0.8015288999304175	2	49	3617271.892	93.75	0.6908928998745978	1	0
453.42339080013335	0.7995055997744203	2	49	3617272.686	93.75	0.6838937997817993	1	0
454.22289639990777	0.800955	1	49	3617273.523	100	0.7216779999434948	1	0
455.02385140024126	0.8000128	2	49	3617274.396	93.75	0.7931671999394894	2	0
455.82386420015246	0.7986210999079049	2	49	3617275.103	93.75	0.7006064001470804	1	0
456.62248530006036	0.7994433999992907	2	49	3617275.869	87.5	0.6682398999109864	1	0
457.42192870005965	0.7978770998306572	2	49	3617276.713	93.75	0.7127093998715281	1	0
458.2198057998903	0.7995729	2	49	3617277.502	93.75	0.7037043003365397	1	0
459.0193787002936	0.8012522999197245	2	49	3617278.33	100	0.7322083995677531	1	0
459.8206310002133	0.8011807999573648	2	49	3617279.124	100	0.7243472998961806	1	0
460.6218118001707	0.7985749999061227	2	49	3617280.029	87.5	0.8279613	2	0
461.4203868000768	0.7978166998364031	2	49	3617280.689	93.75	0.6901866998523474	1	0
462.2182034999132	0.8001409000717103	2	49	3617281.546	100	0.7489689001813531	1	0
463.0183443999849	0.8002492003142834	2	49	3617282.357	100	0.7594830999150872	1	0
463.8185936002992	0.7992470995523036	2	49	3617283.08	93.75	0.6821852996945381	1	0
464.6178406998515	0.7986228000372648	2	49	3617283.958	100	0.7614609003067017	1	0
465.4164634998888	0.8003358002752066	2	49	3617284.948	75	0.9523317003622651	2	0
466.2167993	0.7984223999083042	2	49	3617285.577	93.75	0.7809723000973463	2	0
467.0152217000723	0.7993252999149263	1	49	3617286.549	75	0.9547664998099208	2	0
467.8145469999872	0.7998939002864063	2	49	3617287.513	50	1.1193194002844393	2	0
468.6144409002736	0.7975972	2	49	3617288.102	81.25	0.9089881000109017	2	0
469.41203809995204	0.7987843002192676	2	49	3617288.779	93.75	0.7878342000767589	2	0
470.2108224001713	0.8004872999154031	2	49	3617289.703	81.25	0.9134157998487353	2	0
471.0113097000867	0.7998616001568735	2	49	3617290.427	87.5	0.8369335001334548	2	0
471.8111713002436	0.8009472000412643	2	49	3617291.123	100	0.7328243996016681	1	0
472.61211850028485	0.7997573995962739	2	49	3617291.92	100	0.7288248999975622	1	0
473.4118758998811	0.7981258002109826	2	49	3617292.665	93.75	0.6741569000296295	1	0
474.2100017000921	0.8010304002091289	1	49	3617293.577	93.75	0.7881479	2	0
475.01103210030124	0.7996441	2	49	3617294.278	93.75	0.6879701996222138	1	0
475.8106761998497	0.8005327000282705	2	49	3617295.08	93.75	0.6907618003897369	1	0
476.61120889987797	0.7991095003671944	2	49	3617296.008	93.75	0.8181369001977146	2	0
477.41031840024516	0.7985891997814178	2	49	3617296.822	87.5	0.8328366000205278	2	0
478.2089076000266	0.7992593	2	49	3617297.635	87.5	0.8476510001346469	2	0
479.0081668999046	n/a	0	49	3617298.336	100	0.7491273	1	0