onset	duration	cue	constant1	timestamp	stimulus_coherence	response_time	response	constant2
0.0964272	0.8028345	1	0	0	0	0	0	0
0.8992616999894381	0.7995734000578523	2	49	1282966.092	62.5	0.4376689000055194	1	0
1.6988351000472903	0.8015266999136657	1	49	1282967.091	87.5	0.6364403998013586	1	0
2.500361799960956	0.8010718999430537	2	49	1282968.286	62.5	1.0299480999819934	2	0
3.3014336999040097	0.7993133	2	49	1282968.828	100	0.7713572999928147	1	0
4.100746999960393	0.7994242000859231	1	49	1282969.453	81.25	0.5970989000052214	1	0
4.900171200046316	0.7995215998962522	2	49	1282970.575	81.25	0.9193734999280423	2	0
5.699692799942568	0.8000908000394702	2	49	1282971.142	93.75	0.6869157000910491	1	0
6.499783599982038	0.7996916000265628	2	49	1282972.244	75	0.9887804999016225	2	0
7.299475200008601	0.8365713998209685	2	49	1282972.768	93.75	0.7129705999977887	1	0
8.1360466	0.8035352001897991	1	49	1282973.391	68.75	0.49989800015464425	1	0
8.939581800019369	0.7978151999413967	2	49	1282974.549	87.5	0.8538510999642313	2	0
9.737396999960765	0.7986049999017268	2	49	1282975.225	100	0.7318897999357432	1	0
10.536001999862492	0.7986085000447929	2	49	1282975.957	87.5	0.6656218	1	0
11.334610499907285	0.8006635000929236	2	49	1282976.701	81.25	0.6114380999933928	1	0
12.135274000000209	0.7984114999417216	2	0	0	0	0	0	0
12.93368549994193	0.7975991999264807	2	49	1282978.243	75	0.5540171000175178	1	0
13.73128469986841	0.8004322999622673	2	49	1282979.274	93.75	0.7878484001848847	2	0
14.531716999830678	0.8006959001068026	2	49	1282980.39	56.25	1.1028699001763016	2	0
15.33241289993748	0.8001083000563085	2	49	1282981.222	50	1.134309400105849	2	0
16.13252119999379	0.7987911999225616	2	49	1282981.978	56.25	1.0901017000433058	2	0
16.93131239991635	0.7989910999312997	1	49	1282982.633	75	0.9462812000419945	2	0
17.73030349984765	0.7999015999957919	2	49	1282983.504	68.75	1.0185913001187146	2	0
18.530205099843442	0.8010549	2	49	1282984.266	68.75	0.9804043001495302	2	0
19.33125999988988	0.7994731001090258	2	0	0	0	0	0	0
20.130733099998906	0.7999394999351352	2	49	1282985.364	68.75	0.4780327999033034	1	0
20.93067259993404	0.8013212999794632	2	49	1282986.684	68.75	0.9984695999883115	2	0
21.731993899913505	0.8001159001141787	2	49	1282987.483	68.75	0.9959970000199974	2	0
22.532109800027683	0.7986252999398857	2	49	1282988.205	81.25	0.9178233998827636	2	0
23.33073509996757	0.8015646999701858	2	49	1282988.755	87.5	0.6687695998698473	1	0
24.132299799937755	0.8011270998977125	2	49	1282989.337	62.5	0.4494398001115769	1	0
24.933426899835467	0.8005459001287818	2	49	1282990.08	56.25	0.39165020012296736	1	0
25.73397279996425	0.8015198998618871	2	49	1282990.797	43.75	0.3073146999813616	1	0
26.535492699826136	0.8004608	2	49	1282992.322	62.5	1.031494399998337	2	0
27.3359535	0.8004624999593943	2	49	1282993.228	50	1.1370189001318067	2	0
28.136415999848396	0.7998615000396967	2	0	0	0	0	0	0
28.936277499888092	0.7979884999804199	2	49	1282994.219	75	0.5278535	1	0
29.734265999868512	0.8010291999671608	2	49	1282995.049	75	0.5593583001755178	1	0
30.535295199835673	0.8014089001808316	2	49	1282995.932	87.5	0.6418968001380563	1	0
31.336704100016505	0.7995958998799324	2	49	1282996.65	75	0.5585525999777019	1	0
32.13629999989644	0.7991208999883384	2	49	1282997.624	100	0.7320636000949889	1	0
32.935420899884775	0.7994147001300007	2	49	1282998.482	93.75	0.7917416000273079	2	0
33.734835600014776	0.8011568000074476	2	49	1282999.23	100	0.7397012999281287	1	0
34.535992400022224	0.8005820999387652	2	49	1282999.928	87.5	0.6365049998275936	1	0
35.33657449996099	0.7997950999997556	1	0	0	0	0	0	0
36.136369599960744	0.8002217998728156	1	49	1283001.33	62.5	0.4380183999892324	1	0
36.93659139983356	0.8009767001494765	2	49	1283002.63	75	0.9381899000145495	2	0
37.73756809998304	0.7990172998979688	2	49	1283003.459	75	0.9659623999614269	2	0
38.536585399881005	0.7993507001083344	2	49	1283004.267	68.75	0.9756080999504775	2	0
39.33593609998934	0.7997862	2	49	1283004.978	81.25	0.8873054999858141	2	0
40.13572230003774	0.7990277998615056	1	49	1283005.831	75	0.9396485998295248	2	0
40.93475009989925	0.7986465	2	49	1283006.64	75	0.9497772001195699	2	0
41.73339660000056	0.8008131999522448	2	49	1283007.678	43.75	1.1892291000112891	2	0
42.534209799952805	0.8001101000700146	2	49	1283008.426	50	1.1368746999651194	2	0
43.33431990002282	0.8000971998553723	2	49	1283009.171	56.25	1.081131499959156	2	0
44.13441709987819	0.8001529001630843	2	49	1283010.004	56.25	1.1140746001619846	2	0
44.934570000041276	0.8034304999746382	2	49	1283010.593	81.25	0.9036033998709172	2	0
45.738000500015914	0.7994492999278009	2	49	1283011.26	100	0.7665937999263406	1	0
46.537449799943715	0.799574	2	49	1283012.055	100	0.7622730999719352	1	0
47.337023800006136	0.7994319000281394	2	49	1283013.236	50	1.1440276999492198	2	0
48.136455700034276	0.7953100998420268	2	49	1283013.876	68.75	0.9844643999822438	2	0
48.9317658	0.7995129	2	49	1283014.614	75	0.9267298001796007	2	0
49.731278700055555	0.7995944998692721	2	49	1283015.469	68.75	0.9824819997884333	2	0
50.53087319992483	0.8018531000707299	2	49	1283016.616	25	1.3299124001059681	2	0
51.33272629999556	0.7985922999214381	1	0	0	0	0	0	0
52.131318599916995	0.8003911001142114	2	49	1283017.737	87.5	0.8508135001175106	2	0
52.931709700031206	0.7994106	2	49	1283018.749	62.5	1.0624696998856962	2	0
53.73112030001357	0.8005199998151511	1	0	0	0	0	0	0
54.53164029982872	0.7986196000128984	2	49	1283020.223	75	0.9357859001029283	2	0
55.33025989984162	0.8008121000602841	1	49	1283021.029	75	0.9431077	2	0
56.131071999901906	0.8010255999397486	2	49	1283021.89	68.75	1.0036693001165986	2	0
56.932097599841654	0.7998206000775099	1	0	0	0	0	0	0
57.731918199919164	0.7997659000102431	2	49	1283023.027	75	0.5401836	1	0
58.53168409992941	0.8008347	1	49	1283024.108	93.75	0.8213559000287205	2	0
59.33251879992895	0.8007867000997066	2	49	1283025.194	56.25	1.1064814999699593	2	0
60.133305500028655	0.7998211998492479	2	49	1283026.102	43.75	1.2138781999237835	2	0
60.9331267	0.7994505001697689	2	49	1283026.9	43.75	1.2121141001116484	2	0
61.73257720004767	0.8001389999408275	2	49	1283027.52	62.5	1.0325768999755383	2	0
62.5327162	0.8013273999094963	2	49	1283028.248	75	0.9596661999821663	2	0
63.334043599897996	0.7980954	2	49	1283028.979	81.25	0.8899993000086397	2	0
64.132139	0.8015380001161247	2	49	1283029.908	68.75	1.0210281000472605	2	0
64.93367699999362	0.7982327998615801	1	0	0	0	0	0	0
65.7319098	0.8034986001439393	2	49	1283030.909	56.25	0.4215383001137525	1	0
66.53540839999914	0.8009903999045491	2	49	1283032.261	75	0.9698665000032634	2	0
67.33639879990369	0.8021067001391202	2	49	1283032.955	87.5	0.8635537999216467	2	0
68.13850550004281	0.7994762999005616	2	49	1283033.837	75	0.9437424999196082	2	0
68.93798179994337	0.7985181999392807	2	49	1283034.556	87.5	0.8629389000125229	2	0
69.73649999988265	0.7985454	2	49	1283035.259	100	0.767122	1	0
70.53504540002905	0.7997247998137027	2	49	1283036.011	93.75	0.7202593	1	0
71.33477019984275	0.8021691001486033	2	49	1283036.708	81.25	0.6176607999950647	1	0
72.13693929999135	0.7989268999081105	1	49	1283037.367	68.75	0.47445710003376007	1	0
72.93586619989946	0.7984760999679565	2	49	1283038.402	93.75	0.7106532999314368	1	0
73.73434229986742	0.8001342001371086	2	49	1283039.062	81.25	0.5719538000412285	1	0
74.53447650000453	0.8027329000178725	2	49	1283039.757	62.5	0.46763510000891984	1	0
75.3372094	0.7988038999028504	2	49	1283041.011	81.25	0.9185628998093307	2	0
76.13601329992525	0.7996644999366254	2	49	1283041.711	93.75	0.8196600000374019	2	0
76.93567779986188	0.8006133001763374	2	49	1283042.521	87.5	0.8296797000803053	2	0
77.73629110003822	0.8008990997914225	2	49	1283043.376	81.25	0.8846443998627365	2	0
78.53719019982964	0.7996291001327336	2	49	1283044.216	75	0.9234235000330955	2	0
79.33681929996237	0.8008361998945475	1	0	0	0	0	0	0
80.13765549985692	0.8017370000015944	2	49	1283045.312	56.25	0.41903730016201735	1	0
80.93939249985851	0.7995844001416117	2	49	1283046.264	75	0.5693371000234038	1	0
81.73897690000013	0.8001420998480171	2	49	1283047.141	87.5	0.6466993999201804	1	0
82.53911899984814	0.7993992001283914	2	49	1283048.316	62.5	1.0217391001060605	2	0
83.33851819997653	0.8003411998506635	2	49	1283048.978	81.25	0.8846584998536855	2	0
84.1388594	0.8007129000034183	2	49	1283049.895	68.75	1.0012030000798404	2	0
84.93957229983062	0.7994804000481963	2	0	0	0	0	0	0
85.73905269987881	0.7986300999764353	2	49	1283051.491	68.75	0.9963305999990553	2	0
86.53768279985525	0.8004125	2	49	1283052.364	56.25	1.0713558001443744	2	0
87.33809529989958	0.8010052000172436	2	49	1283053.11	68.75	1.0167980000842363	2	0
88.13910049991682	0.7994154000189155	2	49	1283053.831	75	0.9367865999229252	2	0
88.93851589993574	0.7979574000928551	2	49	1283054.883	43.75	1.189580800011754	2	0
89.73647330002859	0.8000354999676347	2	49	1283055.575	56.25	1.0832996999379247	2	0
90.53650879999623	0.8004733000416309	2	49	1283056.278	68.75	0.9866023999638855	2	0
91.33698210003786	0.7992521999403834	2	49	1283057.099	68.75	1.0068990997970104	2	0
92.13623429997824	0.8001508000306785	2	49	1283057.819	75	0.9278418000321835	2	0
92.93638510000892	0.8005874999798834	2	49	1283058.605	81.25	0.9137221998535097	2	0
93.7369726	0.8016794000286609	2	49	1283059.684	43.75	1.191421400057152	2	0
94.53865200001746	0.8003648999147117	1	0	0	0	0	0	0
95.33901689993218	0.8001306999940425	2	49	1283060.961	87.5	0.8669672999531031	2	0
96.13914759992622	0.8001681000459939	2	49	1283061.919	62.5	1.0250301999039948	2	0
96.93931569997221	0.8001329998951405	2	49	1283062.691	68.75	0.9968574999365956	2	0
97.73944869986735	0.7995617999695241	2	49	1283063.478	68.75	0.9836347000673413	2	0
98.53901049983688	0.7997749000787735	2	49	1283064.215	81.25	0.9203221001662314	2	0
99.33878539991565	0.8005379000678658	2	49	1283064.857	100	0.7629680000245571	1	0
100.13932329998352	0.8006990000139922	2	49	1283065.85	75	0.9552215000148863	2	0
100.94002229999751	0.8001584999728948	2	0	0	0	0	0	0
101.7401807999704	0.8009001999162138	2	49	1283066.921	62.5	0.42606749990954995	1	0
102.54108099988662	0.7985956000629812	2	49	1283068.301	68.75	1.0044718999415636	2	0
103.3396765999496	0.8007789000403136	2	49	1283069.35	37.5	1.2548495000228286	2	0
104.14045549998991	0.7995213000103831	1	0	0	0	0	0	0
104.9399768000003	0.8004496998619288	1	49	1283070.163	62.5	0.46741239982657135	1	0
105.74042649986222	0.8004565	2	49	1283071.048	75	0.5522286000195891	1	0
106.54088300000876	0.7988241999410093	2	49	1283072.117	87.5	0.8206191998906434	2	0
107.33970719994977	0.8016633000224829	2	49	1283073.021	75	0.9257002999074757	2	0
108.14137049997225	0.7995213998947293	2	49	1283073.676	93.75	0.7790601	2	0
108.94089189986698	0.8021748999599367	1	49	1283074.431	100	0.7346268000546843	1	0
109.74306679982692	0.7990867	2	49	1283075.031	75	0.5327100001741201	1	0
110.5421535000205	0.7986608999781311	2	49	1283075.667	50	0.3694471998605877	1	0
111.34081439999864	0.7998856	2	49	1283076.982	81.25	0.8858209999743849	2	0
112.1406999998726	0.8006422000471503	2	49	1283077.985	56.25	1.0893968001473695	2	0
112.94134219991975	0.7995664000045508	2	49	1283078.637	75	0.9405897001270205	2	0
113.7409085999243	0.7997500000055879	2	49	1283079.209	93.75	0.7127890000119805	1	0
114.54065859992988	0.7987430999055505	2	49	1283079.94	87.5	0.6436767999548465	1	0
115.33940169983543	0.8004900000523776	2	49	1283080.515	62.5	0.42062410013750196	1	0
116.13989169988781	0.7991552001331002	2	49	1283081.864	75	0.9687481001019478	2	0
116.93904690002091	0.7994635999202728	2	49	1283082.484	93.75	0.7897464998532087	2	0
117.73851049994119	0.7981529000680894	2	49	1283083.176	93.75	0.6823424000758678	1	0
118.53666340000927	0.8015129999257624	2	49	1283083.947	87.5	0.6552422000095248	1	0
119.33817639993504	0.8002124	2	49	1283084.635	75	0.5417337000835687	1	0
120.1383887999691	0.7998074998613447	2	49	1283085.879	68.75	0.9854671999346465	2	0
120.93819629983045	0.7998516000807285	2	49	1283086.492	93.75	0.7987070002127439	2	0
121.73804789991118	0.7999732999596745	1	49	1283087.099	81.25	0.6058012000285089	1	0
122.53802119987085	0.7988432999700308	2	49	1283087.783	68.75	0.4900354000274092	1	0
123.33686449984089	0.8007987001910806	2	49	1283089.139	62.5	1.0464421000797302	2	0
124.13766320003197	0.7996396999806166	1	49	1283089.776	81.25	0.883556	2	0
124.93730290001258	0.7998736000154167	2	49	1283090.691	68.75	0.9983463999815285	2	0
125.7371765	0.8001826999243349	2	49	1283091.75	37.5	1.2573765	2	0
126.53735919995233	0.7995726000517607	2	49	1283092.359	62.5	1.0668128998950124	2	0
127.3369318000041	0.8001388998236507	1	49	1283092.921	87.5	0.8290564999915659	2	0
128.13707069982775	0.8028828999958932	2	49	1283093.726	87.5	0.8340450001414865	2	0
128.93995359982364	0.8018002000171691	1	49	1283094.379	93.75	0.6842260002158582	1	0
129.7417537998408	0.7991323000751436	2	49	1283095.17	93.75	0.6726617000531405	1	0
130.54088609991595	0.8004813999868929	2	49	1283096.149	87.5	0.8531716999132186	2	0
131.34136749990284	0.7985297001432627	2	49	1283097.106	68.75	1.009475399972871	2	0
132.1398972000461	0.7981375998351723	2	49	1283098.065	43.75	1.1694236998446286	2	0
132.93803479988128	0.8000610000453889	2	49	1283098.845	50	1.1513036000542343	2	0
133.73809579992667	0.7994856999721378	2	49	1283099.618	50	1.1251562999095768	2	0
134.5375814998988	0.7987182999495417	2	49	1283100.263	68.75	0.9700945001095533	2	0
135.33629979984835	0.7987749001476914	2	0	0	0	0	0	0
136.13507469999604	0.7998555998783559	1	49	1283101.523	87.5	0.6326484000310302	1	0
136.9349302998744	0.8017384000122547	2	49	1283102.456	100	0.7655817000195384	1	0
137.73666869988665	0.8003668000455946	2	49	1283103.27	93.75	0.7776753001380712	2	0
138.53703549993224	0.8006613999605179	2	49	1283104.034	100	0.7412884	1	0
139.33769689989276	0.7981257999781519	2	49	1283105.047	75	0.9536979999393225	2	0
140.13582269987091	0.8007555000949651	2	49	1283105.969	56.25	1.0774558000266552	2	0
140.93657819996588	0.8012667000293732	2	49	1283106.739	62.5	1.0473936998751014	2	0
141.73784489999525	0.7990879998542368	2	49	1283107.506	68.75	1.0130475999321789	2	0
142.5369328998495	0.8015907001681626	2	49	1283108.617	25	1.324447900056839	2	0
143.33852360001765	0.7996807999443263	1	0	0	0	0	0	0
144.13820439996198	0.7983478000387549	2	49	1283109.848	75	0.9543661999050528	2	0
144.93655220000073	0.7987068998627365	2	49	1283110.622	75	0.9301028999034315	2	0
145.73525909986347	0.8030147000681609	2	49	1283111.469	68.75	0.9786343001760542	2	0
146.53827379993163	0.8011775999329984	2	49	1283112.256	75	0.9628536999225616	2	0
147.33945139986463	0.7992553999647498	2	49	1283113.011	81.25	0.9162902999669313	2	0
148.13870679982938	0.8000517000909895	2	49	1283113.842	75	0.9478432000614703	2	0
148.93875849992037	0.7989539001137018	2	49	1283114.626	75	0.9319785	2	0
149.73771240003407	0.8001364998053759	2	49	1283115.51	68.75	1.0173275999259204	2	0
150.53784889983945	0.8013251000083983	2	49	1283116.343	62.5	1.0494640001561493	2	0
151.33917399984784	0.7992865000851452	1	49	1283117.125	62.5	1.0307362000457942	2	0
152.1384605	0.8008048001211137	1	49	1283117.881	68.75	0.9868991000112146	2	0
152.9392653000541	0.8014962999150157	2	49	1283118.587	81.25	0.8926150999031961	2	0
153.74076159996912	0.8010825000237674	2	49	1283119.453	75	0.9574092000257224	2	0
154.5418440999929	0.7993019998539239	2	49	1283120.116	93.75	0.8191583999432623	2	0
155.3411460998468	0.7998111001215875	2	49	1283120.881	93.75	0.7848460001405329	2	0
156.1409571999684	0.7999660999048501	2	49	1283121.632	100	0.7359643999952823	1	0
156.94092329987325	0.7994832000695169	2	49	1283122.374	93.75	0.6780107000377029	1	0
157.74040649994276	0.7989340999629349	1	49	1283123.188	93.75	0.6919046998955309	1	0
158.5393405999057	0.8005806000437587	2	49	1283123.917	87.5	0.6220545000396669	1	0
159.33992119994946	0.7989739999175072	2	49	1283124.847	100	0.7513526000548154	1	0
160.13889519986697	0.8019206000026315	2	49	1283125.537	87.5	0.6430935000535101	1	0
160.9408157998696	0.7998604001477361	1	49	1283126.237	75	0.5412842000368983	1	0
161.74067620001733	0.8007249999791384	2	49	1283126.977	68.75	0.4814909999258816	1	0
162.54140119999647	0.8004625998437405	2	49	1283127.749	62.5	0.4527991998475045	1	0
163.3418637998402	0.7987391001079232	2	49	1283128.497	56.25	0.4003940001130104	1	0
164.14060289994814	0.8008357998915017	2	49	1283129.811	81.25	0.9155780000146478	2	0
164.94143869983964	0.8008832	2	49	1283130.631	75	0.9339045002125204	2	0
165.74232189985923	0.7995987001340836	2	49	1283131.609	56.25	1.111435899976641	2	0
166.54192059999332	0.7996416999958456	2	49	1283132.442	50	1.145255499985069	2	0
167.34156229998916	0.8007553999777883	2	49	1283133.298	43.75	1.2007649999577552	2	0
168.14231769996695	0.7988084000535309	2	0	0	0	0	0	0
168.94112610002048	0.7989098	2	49	1283134.143	62.5	0.4468073998577893	1	0
169.7400358999148	0.8009907000232488	2	49	1283135.132	87.5	0.6367965000681579	1	0
170.54102659993805	0.7992587	2	49	1283135.961	87.5	0.6652007000520825	1	0
171.34028530004434	0.7991411997936666	2	49	1283136.94	87.5	0.8445889998693019	2	0
172.1394265	0.8016318001318723	2	49	1283137.737	87.5	0.8421091001946479	2	0
172.94105829996988	0.8000948999542743	2	49	1283138.575	81.25	0.8784620999358594	2	0
173.74115319992416	0.7983123001176864	2	49	1283139.727	37.5	1.2307084000203758	2	0
174.53946550004184	0.7983970998320729	2	49	1283140.36	62.5	1.0654498	2	0
175.33786259987392	0.7999491000082344	2	49	1283141.057	75	0.9638497000560164	2	0
176.13781169988215	0.8015038000885397	2	49	1283141.712	93.75	0.8188173	2	0
176.9393154999707	0.7984716999344528	2	49	1283142.457	100	0.7623721999116242	1	0
177.73778719990514	0.7991488000843674	2	49	1283143.19	93.75	0.6969230000395328	1	0
178.5369359999895	0.7998983999714255	2	49	1283143.831	75	0.5386105000507087	1	0
179.33683439996094	0.7997677999082953	2	49	1283145.142	62.5	1.0498937999363989	2	0
180.13660219986923	0.8001868999563158	2	49	1283145.782	81.25	0.8899991000071168	2	0
180.93678909982555	0.8016024001408368	2	49	1283146.493	93.75	0.8009219001978636	2	0
181.73839149996638	0.7987172000575811	2	49	1283147.138	87.5	0.6444037999026477	1	0
182.53710870002396	0.8007988	1	49	1283148.132	87.5	0.8394593999255449	2	0
183.33790749986656	0.8018561000935733	1	0	0	0	0	0	0
184.13976359996013	0.8019969000015408	1	49	1283149.465	75	0.5700840000063181	1	0
184.94176049996167	0.8003771998919547	2	49	1283150.738	62.5	1.0411990999709815	2	0
185.74213769985363	0.7991920001804829	2	49	1283151.669	50	1.171925500035286	2	0
186.5413297000341	0.8012941998895258	1	0	0	0	0	0	0
187.34262389992364	0.8003855999559164	2	49	1283152.582	68.75	0.4842762	1	0
188.14300949987955	0.8033990000840276	2	49	1283153.608	93.75	0.7098837001249194	1	0
188.94640849996358	0.7989789000712335	2	49	1283154.41	93.75	0.7085726999212056	1	0
189.74538740003482	0.798863	2	49	1283155.689	43.75	1.1879145000129938	2	0
190.54425040003844	0.7998539998661727	2	49	1283156.45	50	1.150433599948883	2	0
191.3441043999046	0.8011038000695407	2	0	0	0	0	0	0
192.14520819997415	0.7991820999886841	2	49	1283157.362	62.5	0.4618762000463903	1	0
192.94439029996283	0.7998055999632925	2	49	1283158.113	56.25	0.4132258999161422	1	0
193.74419589992613	0.8012895	2	49	1283158.972	68.75	0.4723010999150574	1	0
194.54548539989628	0.8006583999376744	2	49	1283160.341	62.5	1.0399845000356436	2	0
195.34614379983395	0.7990446002222598	2	49	1283161.285	43.75	1.1833592001348734	2	0
196.1451884000562	0.8003095998428762	2	0	0	0	0	0	0
196.9454979998991	0.8003714000806212	2	49	1283162.422	93.75	0.7211748000700027	1	0
197.7458693999797	0.7990451	2	49	1283163.187	93.75	0.6857980999629945	1	0
198.54491449985653	0.7988808	2	49	1283163.843	75	0.5429039001464844	1	0
199.3437952999957	0.7993085000198334	2	49	1283164.659	75	0.5597480998840183	1	0
200.14310380001552	0.8016639999113977	2	49	1283165.938	62.5	1.0391871999017894	2	0
200.94476779992692	0.8028883000370115	1	49	1283166.583	81.25	0.8825802	2	0
201.74765609996393	0.8005989999510348	2	49	1283167.633	50	1.1296804999001324	2	0
202.54825509991497	0.7985451000276953	2	49	1283168.273	75	0.9693497000262141	2	0
203.34680019994266	0.7992197999265045	2	49	1283169.178	56.25	1.0755433000158519	2	0
204.14601999986917	0.8009977000765502	2	49	1283169.802	81.25	0.9004637	2	0
204.94701769994572	0.7991988998837769	2	49	1283170.435	100	0.7324204000178725	1	0
205.7462165998295	0.7983282001223415	2	49	1283171.398	81.25	0.8970453001093119	2	0
206.54454479995184	0.8018066000659019	2	49	1283172.255	75	0.9548752000555396	2	0
207.34635140001774	0.7989105999004096	2	49	1283173.215	56.25	1.113381200004369	2	0
208.14526199991815	0.8011017	2	49	1283173.996	56.25	1.0958825000561774	2	0
208.94636369985528	0.7975790000054985	2	0	0	0	0	0	0
209.74394269986078	0.8003897999878973	2	49	1283175.471	68.75	0.9717515001539141	2	0
210.54433249984868	0.8031568001024425	2	49	1283176.154	87.5	0.8544151000678539	2	0
211.34748929995112	0.7994192999321967	2	49	1283177.001	81.25	0.8979931999929249	2	0
212.14690859988332	0.7985011001583189	2	49	1283177.789	81.25	0.8872488001361489	2	0
212.94540970004164	0.8023359999060631	2	49	1283178.789	56.25	1.0879188999533653	2	0
213.7477456999477	0.8025324000045657	1	49	1283179.458	75	0.9550520998891443	2	0
214.55027809995227	0.8020898	2	49	1283180.22	81.25	0.9148353999480605	2	0
215.35236789984629	0.8019072	2	49	1283181.01	81.25	0.9019123001489788	2	0
216.1542750999797	0.8000594000332057	2	49	1283182.081	43.75	1.1718665000516921	2	0
216.95433450001292	0.8004968999885023	2	49	1283182.927	43.75	1.2176442998461425	2	0
217.75483140000142	0.8002386998850852	2	49	1283183.666	50	1.1554926000535488	2	0
218.5550700998865	0.8002455001696944	2	49	1283184.487	43.75	1.176796399988234	2	0
219.3553156000562	0.8006915999576449	2	49	1283185.212	56.25	1.1016006998252124	2	0
220.15600720001385	0.7999495998956263	2	49	1283186.122	43.75	1.2109166998416185	2	0
220.95595679990947	0.7993429000489414	2	49	1283186.702	68.75	0.9905543001368642	2	0
221.7552996999584	0.8010922998655587	2	49	1283187.335	87.5	0.8246792000718415	2	0
222.55639199982397	0.8013228001073003	2	49	1283188.147	87.5	0.8357799001969397	2	0
223.35771479993127	0.8012538999319077	2	49	1283188.747	87.5	0.6345180999487638	1	0
224.15896869986318	0.7996346	2	49	1283189.437	75	0.5224119001068175	1	0
224.95860329992138	0.7995756000746042	2	49	1283190.126	56.25	0.41172350011765957	1	0
225.75817889999598	0.8022614999208599	2	49	1283191.457	75	0.9440345999319106	2	0
226.56044039991684	0.8017118000425398	2	49	1283192.098	93.75	0.7826901	2	0
227.36215219995938	0.7998661999590695	2	49	1283192.756	87.5	0.6385013998951763	1	0
228.16201839991845	0.7989586000330746	1	49	1283193.473	75	0.5559473999310285	1	0
228.96097699995153	0.8012945000082254	2	49	1283194.466	100	0.7495124998968095	1	0
229.76227149995975	0.8004389998968691	2	49	1283195.12	81.25	0.6029085000045598	1	0
230.56271049985662	0.7990566	2	49	1283195.783	62.5	0.4646917001809925	1	0
231.36176709993742	0.8020536999683827	1	49	1283197.117	68.75	1.0004191000480205	2	0
232.1638207999058	0.8006770999636501	1	49	1283197.763	87.5	0.8443967	2	0
232.96449789986946	0.8011420001275837	2	49	1283198.483	100	0.7633660000283271	1	0
233.76563989999704	0.7986883998382837	2	49	1283199.217	93.75	0.6957906999159604	1	0
234.56432829983532	0.8006411001551896	2	49	1283199.914	81.25	0.5942127001471817	1	0
235.3649693999905	0.7995441998355091	2	49	1283201.329	43.75	1.2085779998451471	2	0
236.16451359982602	0.7998228000942618	2	49	1283202.21	31.25	1.2899433001875877	2	0
236.96433639992028	0.8000398001167923	1	0	0	0	0	0	0
237.76437620003708	0.8005463	1	0	0	0	0	0	0
238.56492249993607	0.8001075000502169	2	49	1283204.088	100	0.7675252999179065	1	0
239.3650299999863	0.8001401000656188	2	49	1283204.901	93.75	0.7802955999504775	2	0
240.1651701000519	0.8003517999313772	2	49	1283205.677	100	0.7565149997826666	1	0
240.9655218999833	0.7994061999488622	1	49	1283206.471	100	0.7498699999414384	1	0
241.76492809993215	0.7990784000139683	1	49	1283207.16	87.5	0.6400878999847919	1	0
242.56400649994612	0.7986504000145942	2	49	1283207.88	75	0.5611922000534832	1	0
243.3626568999607	0.7985618	2	49	1283208.502	56.25	0.3840451000723988	1	0
244.16121869999915	0.7996461000293493	2	49	1283209.525	81.25	0.6087412	1	0
244.9608648000285	0.8007817999459803	2	49	1283210.273	75	0.5572242999915034	1	0
245.76164659997448	0.8010507000144571	2	49	1283211.171	87.5	0.6541498999577016	1	0
246.56269729998894	0.8007875999901444	2	49	1283211.973	87.5	0.6551667999010533	1	0
247.36348489997908	0.8003930000122637	2	49	1283212.735	81.25	0.6165821999311447	1	0
248.16387789999135	0.8011512998491526	2	49	1283213.533	81.25	0.6141918	1	0
248.9650291998405	0.7992091001942754	2	49	1283214.333	81.25	0.6131619000807405	1	0
249.76423830003478	0.8003858998417854	2	49	1283215.074	75	0.5548535	1	0
250.56462419987656	0.7992561000864953	2	49	1283216.273	75	0.9532864	2	0
251.36388029996306	0.7994381999596953	2	49	1283217.208	56.25	1.0892757000401616	2	0
252.16331849992275	0.7997136	2	0	0	0	0	0	0
252.9630321	0.7986312999855727	1	0	0	0	0	0	0
253.76166339986958	0.7997936001047492	2	0	0	0	0	0	0
254.56145699997433	0.8008125999476761	1	49	1283220.284	75	0.9677051999606192	2	0
255.3622696	0.8016047000419348	2	49	1283220.868	100	0.7508658000733703	1	0
256.16387429996394	0.7982161999680102	2	49	1283221.49	81.25	0.5712242000736296	1	0
256.96209049993195	0.8012930999975652	2	49	1283222.265	75	0.5476482999511063	1	0
257.7633835999295	0.8020395000930876	2	49	1283222.995	68.75	0.47667340002954006	1	0
258.5654231000226	0.7997587998397648	2	49	1283223.658	50	0.3370282999239862	1	0
259.36518189986236	0.7977122999727726	1	49	1283224.518	56.25	0.3976032000500709	1	0
260.16289419983514	0.7993218000046909	1	49	1283225.501	81.25	0.5833517001010478	1	0
260.9622159998398	0.8004854000173509	1	0	0	0	0	0	0
261.7627013998572	0.8007338000461459	2	49	1283227.471	75	0.9525650001596659	2	0
262.5634351999033	0.7996767000295222	2	49	1283228.286	75	0.9669701000675559	2	0
263.36311189993285	0.8018833000678569	2	0	0	0	0	0	0
264.1649952000007	0.8004065	2	49	1283229.604	93.75	0.6842465000227094	1	0
264.96540169999935	0.7998997	2	49	1283230.319	81.25	0.5982104998547584	1	0
265.76530139986426	0.7978466001804918	2	49	1283231.013	68.75	0.4923440001439303	1	0
266.56314800004475	0.7998817998450249	2	49	1283232.116	93.75	0.7973344000056386	2	0
267.3630297998898	0.8004265001509339	2	49	1283232.882	100	0.7633996999356896	1	0
268.1634563000407	0.8005788	2	49	1283234.069	50	1.1499652999918908	2	0
268.96403509983793	0.8027999000623822	2	0	0	0	0	0	0
269.7668349999003	0.7998774999286979	2	49	1283235.178	87.5	0.6557189000304788	1	0
270.5667125	0.8011311001610011	2	49	1283235.853	75	0.5309509001672268	1	0
271.3678436	0.7992924998980016	1	49	1283237.139	68.75	1.0158100998960435	2	0
272.1671361	0.7994401000905782	2	49	1283237.805	81.25	0.8823607000522316	2	0
272.9665761999786	0.8013951000757515	2	49	1283238.731	68.75	1.0090766998473555	2	0
273.76797130005434	0.8000963998492807	2	49	1283239.649	50	1.125652499962598	2	0
274.5680676999036	0.7982481000944972	2	0	0	0	0	0	0
275.3663157999981	0.8010662000160664	2	49	1283240.777	87.5	0.6553662000223994	1	0
276.1673820000142	0.7998716998845339	1	49	1283241.573	87.5	0.6500164000317454	1	0
276.9672536998987	0.7990932001266629	2	49	1283242.335	81.25	0.6121045	1	0
277.7663469000254	0.8006038998719305	1	49	1283243.622	56.25	1.1004464998841286	2	0
278.5669507998973	0.8006204001139849	2	49	1283244.365	62.5	1.042658600024879	2	0
279.3675712000113	0.7990219998173416	2	49	1283245.106	68.75	0.9828268999699503	2	0
280.16659319982864	0.7994450000114739	2	49	1283245.813	81.25	0.8913976000621915	2	0
280.9660381998401	0.8003313	2	49	1283246.545	87.5	0.8239181	2	0
281.76636949996464	0.7991998000070453	1	49	1283247.531	68.75	1.0098840000573546	2	0
282.5655692999717	0.7981090999674052	2	49	1283248.293	68.75	0.9717882	2	0
283.3636783999391	0.8003881	2	49	1283248.959	87.5	0.8399662000592798	2	0
284.16406650003046	0.7988702999427915	1	49	1283249.804	81.25	0.8845598998013884	2	0
284.96293679997325	0.8016283998731524	2	49	1283250.562	87.5	0.8440918000414968	2	0
285.7645651998464	0.7999617999885231	1	0	0	0	0	0	0
286.5645269998349	0.8001671000383794	2	0	0	0	0	0	0
287.3646940998733	0.7993559001479298	2	0	0	0	0	0	0
288.16405000002123	0.8018004999030381	1	49	1283253.717	93.75	0.7981735998764634	2	0
288.9658504999243	0.8004475999623537	2	49	1283254.867	50	1.1462469999678433	2	0
289.7662980998866	0.7974473000504076	2	0	0	0	0	0	0
290.56374539993703	0.7999964999035001	2	49	1283255.89	75	0.5711207999847829	1	0
291.36374189984053	0.7997978001367301	1	0	0	0	0	0	0
292.16353969997726	0.8016238999553025	2	49	1283257.199	43.75	0.28053319989703596	1	0
292.96516359993257	0.7993477000854909	2	49	1283258.291	81.25	0.5704892999492586	1	0
293.76451130001806	0.8006806999910623	1	49	1283259.099	81.25	0.5797168000135571	1	0
294.5651920000091	0.7990887998603284	2	49	1283260.094	93.75	0.7730774998199195	2	0
295.36428079986945	0.8007466001436114	2	49	1283261.269	50	1.1497657001018524	2	0
296.16502740001306	0.8007030999287963	2	49	1283261.941	68.75	1.0212250999175012	2	0
296.96573049994186	0.7997574000619352	2	0	0	0	0	0	0
297.7654879000038	0.7999235	2	49	1283263.281	100	0.7600789999123663	1	0
298.5654114000499	0.7994422998744994	2	49	1283264.084	100	0.7629034998826683	1	0
299.3648536999244	0.8006553000304848	2	49	1283265.024	81.25	0.9034112999215722	2	0
300.1655089999549	0.7993290999438614	2	49	1283266.032	56.25	1.1109575000591576	2	0
300.96483809989877	0.8019175999797881	1	0	0	0	0	0	0
301.76675569987856	0.8017609999515116	2	49	1283267.211	93.75	0.6886660000309348	1	0
302.56851669983007	0.7989163000602275	2	49	1283268.295	68.75	0.9708423	2	0
303.3674329998903	0.8008389000315219	2	0	0	0	0	0	0
304.1682718999218	0.8005812999326736	2	49	1283269.523	81.25	0.5991569000761956	1	0
304.9688531998545	0.8003746999893337	2	49	1283270.516	93.75	0.7920765001326799	2	0
305.7692278998438	0.8010677001439035	2	49	1283271.306	93.75	0.7813214000780135	2	0
306.57029559998773	0.8002020998392254	1	0	0	0	0	0	0
307.37049769982696	0.7988481000065804	2	49	1283272.416	43.75	0.29013390000909567	1	0
308.16934579983354	0.8020393000915647	2	49	1283273.219	43.75	0.2947186999954283	1	0
308.9713850999251	0.7988607999868691	2	49	1283274.223	68.75	0.49681050004437566	1	0
309.77024589991197	0.7995343999937177	2	49	1283274.994	62.5	0.4685536	1	0
310.5697802999057	0.7990202999208122	2	49	1283275.918	81.25	0.5929300999268889	1	0
311.3688005998265	0.8004891001619399	1	49	1283276.821	93.75	0.6968771000392735	1	0
312.16928969998844	0.8002817998640239	2	0	0	0	0	0	0
312.96957149985246	0.8011306000407785	2	49	1283278.337	81.25	0.6122728001791984	1	0
313.77070209989324	0.7994187001604587	1	49	1283279.081	75	0.5551696999464184	1	0
314.5701208000537	0.8006226997822523	2	49	1283279.73	56.25	0.4047955998685211	1	0
315.37074349983595	0.7994859002064914	2	49	1283281.184	62.5	1.0583320001605898	2	0
316.17022940004244	0.7995707998052239	2	49	1283282.133	43.75	1.207941500004381	2	0
316.96980019984767	0.8011537999846041	1	0	0	0	0	0	0
317.7709539998323	0.7983208000659943	2	49	1283282.932	56.25	0.40593660017475486	1	0
318.56927479989827	0.7997206000145525	2	49	1283283.801	68.75	0.47649409994482994	1	0
319.3689953999128	0.800677	2	49	1283284.565	62.5	0.4408806001301855	1	0
320.1696723999921	0.7998501998372376	2	49	1283285.92	68.75	0.9946474998723716	2	0
320.96952259982936	0.7984913000836968	2	49	1283286.706	68.75	0.9815548001788557	2	0
321.76801389991306	0.8024081001058221	2	49	1283287.504	68.75	0.9811337001156062	2	0
322.5704220000189	0.8000616999343038	2	0	0	0	0	0	0
323.3704836999532	0.7996533999685198	2	49	1283288.602	68.75	0.47663230006583035	1	0
324.1701370999217	0.7993542000185698	1	0	0	0	0	0	0
324.9694912999403	0.8022523999679834	2	49	1283289.999	43.75	0.27391549991443753	1	0
325.77174369990826	0.7984559999313205	2	0	0	0	0	0	0
326.5701996998396	0.8002729001455009	2	49	1283291.791	62.5	0.4658069000579417	1	0
327.3704725999851	0.7999835999216884	2	49	1283292.668	75	0.5418684999458492	1	0
328.17045619990677	0.8010935001075268	2	49	1283293.763	87.5	0.8372003000695258	2	0
328.9715497000143	0.8005542999599129	2	0	0	0	0	0	0
329.7721039999742	0.8015663998667151	2	49	1283295.176	87.5	0.6483221	1	0
330.5736703998409	0.8019440001808107	2	49	1283296.282	75	0.9527393002063036	2	0
331.37561440002173	0.8009458	2	49	1283297.121	68.75	0.9898379999212921	2	0
332.17656020005234	0.7984034998808056	2	49	1283298.102	50	1.1697211998980492	2	0
332.97496369993314	0.8020758999045938	2	49	1283299.085	25	1.3545196000486612	2	0
333.77703959983774	0.8010564	1	0	0	0	0	0	0
334.578096	0.8000053998548537	2	49	1283300.319	68.75	0.9859130999539047	2	0
335.37810139986686	0.801119	2	49	1283301.305	50	1.172012299997732	2	0
336.17922040005215	0.8016493	2	0	0	0	0	0	0
336.9808697	0.801863	2	49	1283302.274	75	0.5378868000116199	1	0
337.7827326999977	0.7990893	2	49	1283302.954	56.25	0.4161034000571817	1	0
338.5818219999783	0.8005269998684525	2	49	1283303.736	56.25	0.3993341000750661	1	0
339.3823489998467	0.8010053001344204	1	49	1283304.473	50	0.3351794	1	0
340.18335429998115	0.8008745000697672	2	49	1283305.321	56.25	0.38290510000661016	1	0
340.9842288000509	0.8002402998972684	2	49	1283306.561	93.75	0.8211226	2	0
341.7844690999482	0.7990160998888314	2	49	1283307.734	43.75	1.1945946998894215	2	0
342.5834852	0.7985126001294702	2	0	0	0	0	0	0
343.3819977999665	0.7993744	2	49	1283309.289	50	1.1517057998571545	2	0
344.18137219990604	0.8027214999310672	1	0	0	0	0	0	0
344.9840936998371	0.8008290000725538	1	49	1283310.635	81.25	0.8956678002141416	2	0
345.78492269990966	0.8000302999280393	2	0	0	0	0	0	0
346.5849529998377	0.7994417001027614	2	49	1283312.537	43.75	1.1971231000497937	2	0
347.38439469994046	0.8009677000809461	2	49	1283313.316	43.75	1.1763025999534875	2	0
348.1853624000214	0.7976470999419689	2	49	1283313.887	75	0.9466065999586135	2	0
348.9830094999634	0.7992136999964714	1	0	0	0	0	0	0
349.78222319995984	0.8037813999690115	2	49	1283315.717	43.75	1.1796756000258029	2	0
350.58600459992886	0.8016973999328911	2	49	1283316.264	81.25	0.9223696999251842	2	0
351.38770199986175	0.7991480000782758	2	49	1283317.216	56.25	1.0732307999860495	2	0
352.18685	0.7980724000371993	2	49	1283318.149	43.75	1.2071326998993754	2	0
352.9849223999772	0.8025344999041408	2	49	1283318.862	56.25	1.1220424000639468	2	0
353.78745689988136	0.8009265000000596	2	49	1283319.666	50	1.1235663001425564	2	0
354.5883833998814	0.7996165	1	0	0	0	0	0	0
355.3879998999182	0.7999495000112802	2	49	1283320.858	93.75	0.7149509999435395	1	0
356.1879493999295	0.8024192000739276	2	49	1283322.075	50	1.131386199966073	2	0
356.9903686000034	0.7982293998356909	2	0	0	0	0	0	0
357.7885979998391	0.8002174000721425	2	49	1283323.144	81.25	0.6005610001739115	1	0
358.58881539991125	0.7979284001048654	2	0	0	0	0	0	0
359.3867438000161	0.8003545999526978	2	49	1283324.564	62.5	0.42164439987391233	1	0
360.1870983999688	0.8004848998971283	2	49	1283325.328	56.25	0.38522280007600784	1	0
360.98758329986595	0.8009923	2	49	1283326.446	93.75	0.7036717999726534	1	0
361.7885755999014	0.8001635000109673	2	49	1283327.036	68.75	0.49189039994962513	1	0
362.58873909991235	0.8004888000432402	2	49	1283328.001	87.5	0.6567132999189198	1	0
363.3892278999556	0.8000896000303328	2	0	0	0	0	0	0
364.1893174999859	0.8000306999310851	2	49	1283329.597	87.5	0.6521066999994218	1	0
364.9893482	0.8002813	2	0	0	0	0	0	0
365.78962949989364	0.8027085999492556	1	0	0	0	0	0	0
366.5923380998429	0.7984805000014603	1	49	1283332.103	100	0.7552426001057029	1	0
367.39081859984435	0.7989174001850188	2	49	1283333.009	87.5	0.8625847999937832	2	0
368.18973600002937	0.7994879998732358	2	49	1283333.884	75	0.9388336997944862	2	0
368.9892239999026	0.7998264001216739	2	49	1283334.629	81.25	0.8843225000891834	2	0
369.7890504000243	0.7998838999774307	2	49	1283335.527	68.75	0.9825791	2	0
370.5889343000017	0.7996618000324816	2	49	1283336.417	56.25	1.0726212998852134	2	0
371.3885961000342	0.7993463	2	49	1283337.231	56.25	1.087087000021711	2	0
372.1879423998762	0.8022195000667125	2	49	1283338.002	62.5	1.0591388000175357	2	0
372.9901618999429	0.7989137000404298	2	49	1283338.787	62.5	1.0418247999623418	2	0
373.78907559998333	0.8013408000115305	2	49	1283339.612	62.5	1.0675500999204814	2	0
374.59041639999487	0.7994813	2	49	1283340.427	56.25	1.0811401000246406	2	0
375.3898976999335	0.8015932000707835	2	49	1283341.143	68.75	0.9977820999920368	2	0
376.1914909000043	0.7981583999935538	2	49	1283341.916	75	0.9690017998218536	2	0
376.98964929999784	0.8009160999208689	2	49	1283342.951	43.75	1.206162199843675	2	0
377.7905653999187	0.8003881999757141	2	49	1283343.665	56.25	1.119413600070402	2	0
378.5909535998944	0.7993360001128167	2	49	1283344.38	62.5	1.0334845001343638	2	0
379.39028960000724	0.7975094998255372	2	0	0	0	0	0	0
380.1877990998328	0.8023338001221418	2	49	1283345.53	81.25	0.5870243001263589	1	0
380.9901328999549	0.8005474999081343	2	49	1283346.372	87.5	0.6266206000000238	1	0
381.79068039986305	0.7996061001904309	2	49	1283347.167	87.5	0.6214964	1	0
382.5902865000535	0.8004203999880701	2	49	1283347.922	81.25	0.5765893999487162	1	0
383.39070690004155	0.8001127999741584	2	49	1283348.998	87.5	0.8523805998265743	2	0
384.1908197000157	0.8004727999214083	2	0	0	0	0	0	0
384.9912924999371	0.8010374999139458	1	49	1283350.577	87.5	0.8306378999259323	2	0
385.79232999985106	0.7999716000631452	2	49	1283351.506	75	0.9586300000082701	2	0
386.5923015999142	0.8034347000066191	2	49	1283352.377	62.5	1.0295375999994576	2	0
387.3957362999208	0.8002592	2	49	1283353.064	81.25	0.9130404000170529	2	0
388.1959954998456	0.8016319000162184	2	49	1283353.762	93.75	0.8103525000624359	2	0
388.9976273998618	0.7980790000874549	2	49	1283354.474	100	0.7206788000185043	1	0
389.79570639994927	0.8011037	2	49	1283355.213	87.5	0.6622353999409825	1	0
390.59681009990163	0.8028722000308335	2	49	1283356.124	100	0.7723144	1	0
391.39968229993246	0.8018153999000788	2	49	1283356.992	87.5	0.8369873000774533	2	0
392.20149769983254	0.7988336000125855	2	0	0	0	0	0	0
393.00033129984513	0.8000597001519054	2	49	1283358.462	93.75	0.7060096000786871	1	0
393.80039099999703	0.8025585	2	49	1283359.501	75	0.9449587999843061	2	0
394.6029494998511	0.8006141	2	0	0	0	0	0	0
395.4035636000335	0.8011757999192923	2	49	1283360.595	62.5	0.43623739993199706	1	0
396.2047393999528	0.7985020000487566	2	49	1283361.444	68.75	0.48365409998223186	1	0
397.00324140000157	0.7994647999294102	2	49	1283362.441	93.75	0.6822299999184906	1	0
397.8027062	0.7985604999121279	2	49	1283363.551	68.75	0.9928419999778271	2	0
398.6012666998431	0.7996805000584573	2	49	1283364.532	43.75	1.1754494002088904	2	0
399.40094719990157	0.8002967999782413	2	49	1283365.361	43.75	1.2047379999421537	2	0
400.2012439998798	0.7975685000419617	2	0	0	0	0	0	0
400.99881249992177	0.7966430999804288	2	49	1283366.305	75	0.5510535000357777	1	0
401.7954555999022	0.7996040999423712	1	49	1283367.167	81.25	0.6159051000140607	1	0
402.59505969984457	0.8008944001048803	2	49	1283368.035	93.75	0.6847031000070274	1	0
403.39595409994945	0.8001373000442982	2	49	1283368.889	100	0.7374058999121189	1	0
404.19609139999375	0.7997858000453562	2	0	0	0	0	0	0
404.9958772000391	0.8003201	2	49	1283370.411	87.5	0.6598227999638766	1	0
405.7961972998455	0.7986571001820266	2	0	0	0	0	0	0
406.59485440002754	0.7981767999008298	1	0	0	0	0	0	0
407.3930311999284	0.8003748999908566	2	49	1283372.51	50	0.36208210000768304	1	0
408.19340609991923	0.8016107000876218	2	49	1283373.354	56.25	0.40515929996035993	1	0
408.99501680000685	0.7995245999190956	2	49	1283374.064	43.75	0.3138430998660624	1	0
409.79454139992595	0.7999601000919938	2	49	1283374.916	50	0.3661655	1	0
410.59450150001794	0.8014157998841256	2	49	1283376.282	75	0.9322938998229802	2	0
411.39591729990207	0.8004175000824034	2	49	1283377.148	68.75	0.9968047000002116	2	0
412.19633479998447	0.7986475999932736	2	49	1283377.943	68.75	0.9918906	2	0
412.99498239997774	0.8005698998458683	2	0	0	0	0	0	0
413.7955522998236	0.7991998000070453	2	49	1283379.256	93.75	0.7053107002284378	1	0
414.59475209983066	0.7984860001597553	2	49	1283379.877	75	0.5270784001331776	1	0
415.3932380999904	0.7990983999334276	2	49	1283380.55	56.25	0.40171119989827275	1	0
416.19233649992384	0.8005076	2	49	1283381.913	75	0.9657429999206215	2	0
416.9928440998774	0.798782	2	49	1283382.634	81.25	0.8855892999563366	2	0
417.79162609996274	0.8001822	2	49	1283383.306	100	0.7595510999672115	1	0
418.5918082999997	0.7999855999369174	2	49	1283384.02	87.5	0.6732142998371273	1	0
419.3917938999366	0.7989098	2	49	1283384.928	93.75	0.7812689999118447	2	0
420.1907036998309	0.7988938000053167	2	49	1283386.037	56.25	1.0913401001598686	2	0
420.98959749983624	0.8015950000844896	2	49	1283386.81	62.5	1.0654423001687974	2	0
421.7911924999207	0.7998331000562757	2	49	1283387.461	81.25	0.9150064000859857	2	0
422.5910256	0.7985465999227017	2	49	1283388.28	75	0.9342232	2	0
423.3895721998997	0.8024341999553144	2	49	1283389.048	81.25	0.9027366	2	0
424.1920064	0.7994006001390517	2	49	1283389.893	75	0.9455283000133932	2	0
424.99140699999407	0.8006813998799771	2	49	1283391.024	31.25	1.2777360999025404	2	0
425.79208839987405	0.7998514000792056	1	0	0	0	0	0	0
426.59193979995325	0.8014279999770224	2	49	1283391.897	75	0.549873	1	0
427.3933677999303	0.7999855999369174	1	49	1283392.96	93.75	0.8112437999807298	2	0
428.1933533998672	0.8004658001009375	2	49	1283393.716	100	0.7678821000736207	1	0
428.99381919996813	0.8005953000392765	2	0	0	0	0	0	0
429.7944145000074	0.7987237998750061	2	49	1283395.025	68.75	0.47500790003687143	1	0
430.5931382998824	0.8006978000048548	1	49	1283395.938	81.25	0.5892186	1	0
431.39383609988727	0.7967222000006586	2	49	1283397.272	50	1.1225002999417484	2	0
432.1905582998879	0.8005121999885887	2	0	0	0	0	0	0
432.9910704998765	0.8011628000531346	2	0	0	0	0	0	0
433.79223329992965	0.8007511999458075	2	49	1283399.06	68.75	0.5128011999186128	1	0
434.59298449987546	0.7990451001096517	1	0	0	0	0	0	0
435.3920295999851	0.8018608000129461	2	0	0	0	0	0	0
436.19389039999805	0.7993411000352353	2	49	1283401.625	93.75	0.6755061	1	0
436.9932315000333	0.7995767998509109	2	49	1283402.348	81.25	0.5997984998393804	1	0
437.7928082998842	0.7989548000041395	2	49	1283403.183	87.5	0.6347412001341581	1	0
438.59176309988834	0.8019632999785244	2	49	1283403.8	62.5	0.4528552000410855	1	0
439.39372639986686	0.7997823001351207	1	49	1283405.111	75	0.9622858001384884	2	0
440.1935087	0.7992948999162763	2	49	1283405.698	100	0.7493224998470396	1	0
440.99280359991826	0.8012314999941736	2	49	1283406.307	75	0.5591102000325918	1	0
441.79403509991243	0.7999301999807358	2	49	1283407.071	75	0.5218221999239177	1	0
442.59396529989317	0.7997026001103222	2	49	1283407.791	62.5	0.4417970001231879	1	0
443.3936679000035	0.8003117998596281	2	49	1283409.076	75	0.9271921999752522	2	0
444.1939796998631	0.7978618000634015	2	49	1283409.649	93.75	0.6998776001855731	1	0
444.9918414999265	0.7989010999444872	2	49	1283410.229	68.75	0.48194490000605583	1	0
445.7907426	0.8006321000866592	1	49	1283411.491	75	0.9453917001374066	2	0
446.59137469995767	0.8000654000788927	2	0	0	0	0	0	0
447.39144010003656	0.8000309	2	49	1283412.595	62.5	0.4485149998217821	1	0
448.19147099996917	0.7998858999926597	2	49	1283413.55	81.25	0.6034510000608861	1	0
448.99135689996183	0.8017170000821352	2	49	1283414.405	87.5	0.6585574999917299	1	0
449.79307390004396	0.8002855000086129	1	49	1283415.29	100	0.7414976998697966	1	0
450.5933594000526	0.7993697999045253	2	0	0	0	0	0	0
451.3927291999571	0.8008775999769568	2	49	1283416.671	75	0.5226100999861956	1	0
452.19360679993406	0.8015261	2	49	1283417.771	93.75	0.8216737	2	0
452.99513289984316	0.7995227000210434	2	49	1283418.396	87.5	0.6460750000551343	1	0
453.7946555998642	0.8011438001412898	2	0	0	0	0	0	0
454.5957994000055	0.7992539999540895	2	49	1283419.78	62.5	0.4292968998197466	1	0
455.3950533999596	0.8000932	1	0	0	0	0	0	0
456.1951466000173	0.8008591998368502	2	49	1283421.582	87.5	0.6320111998356879	1	0
456.9960057998542	0.8003172	2	49	1283422.339	81.25	0.5880760001018643	1	0
457.79632299998775	0.8007791999261826	1	49	1283423.397	87.5	0.8456965999212116	2	0
458.59710219991393	0.8007485000416636	2	49	1283424.146	93.75	0.7935472000390291	2	0
459.3978506999556	0.8004523999989033	1	49	1283424.673	68.75	0.5194234000518918	1	0
460.1983030999545	0.800186	2	49	1283425.579	87.5	0.6258121	1	0
460.9984891000204	0.7988354000262916	2	49	1283426.201	62.5	0.4473023999016732	1	0
461.79732450004667	0.7995967	2	49	1283427.519	75	0.9661257998086512	2	0
462.5969211999327	0.8001111999619752	2	49	1283428.232	81.25	0.8802475999109447	2	0
463.39703239989467	0.8000241001136601	1	49	1283428.915	100	0.7629897999577224	1	0
464.19705650000833	0.8063831999897957	2	49	1283429.706	100	0.7541865	1	0
465.0034396999981	0.8007554998621345	2	49	1283430.753	68.75	0.9940507998690009	2	0
465.80419519986026	0.7982618000824004	2	49	1283431.268	93.75	0.7087915001902729	1	0
466.60245699994266	0.8005542000755668	2	49	1283432.364	68.75	1.0063759998884052	2	0
467.4030112000182	0.8024217998608947	1	49	1283432.965	93.75	0.8066014000214636	2	0
468.2054329998791	0.7988702000584453	2	49	1283433.575	81.25	0.6140277001541108	1	0
469.00430319993757	0.8009785	2	49	1283434.259	68.75	0.4992698000278324	1	0
469.8052816998679	0.8009872001130134	2	49	1283434.889	50	0.32821170007809997	1	0
470.60626889998093	0.7980034998618066	1	49	1283436.03	87.5	0.6689842999912798	1	0
471.40427239984274	0.7984193000011146	2	49	1283436.892	100	0.7326303001027554	1	0
472.20269169984385	0.8010216001421213	2	49	1283437.561	81.25	0.6029654000885785	1	0
473.0037133	0.8000518998596817	2	49	1283438.775	68.75	1.0159515999257565	2	0
473.80376519984566	0.7987375	2	0	0	0	0	0	0
474.6025026999414	0.8001966	2	49	1283439.803	62.5	0.4455896	1	0
475.40269929985516	0.7994103999808431	2	49	1283441.132	68.75	0.9739064001478255	2	0
476.2021097	0.8003651001490653	2	49	1283442.176	43.75	1.218501000199467	2	0
477.00247479998507	0.8008695000316948	2	0	0	0	0	0	0
477.80334430001676	0.7994913	2	49	1283443.026	62.5	0.4674505000002682	1	0
478.60283560003154	0.8010765998624265	2	49	1283443.905	75	0.5467452998273075	1	0
479.40391219989397	n/a	0	0	0	0	0	0	0