onset	duration	offset	trial	item	RT	response
51.5158	5.57221419992851	57.08801419992851	1	att	2.59344550000969	7.0
57.08936209994751	7.339413700043295	64.4287757999908	1	past	1.23677660000976	2.0
64.4298620999969	5.669578699977109	70.099440799974	1	fut	0.986178599996492	6.0
70.1006996000131	3.065871699946001	73.1665712999591	1	self	0.990861599915661	7.0
73.16781570000491	1.7160540999611982	74.8838697999661	1	ppl	0.594771099975333	5.0
74.8850395000252	3.0083688999294083	77.89340839995461	1	arou	1.84794059989508	6.0
77.8943517999203	3.476958900108002	81.3713107000283	1	aff	1.02511420007795	6.0
81.372288600024	3.060483699897489	84.4327722999215	1	eng	0.949997099931352	4.0
84.43624359992751	2.8990460000929943	87.3352896000205	1	mvmt	0.711678400053643	4.0
87.3365368999715	6.792988499975991	94.1295253999475	1	delib	1.78950019995682	4.0
94.1305085999835	3.4321634999940045	97.5626720999775	1	image	1.12559269997291	7.0
97.5636505999785	3.198541700025004	100.7621923000035	1	ling	0.872496200026944	7.0
100.76321660000251	2.221451699966991	102.9846682999695	1	conf	0.855570300016552	7.0
156.8513726000155	6.160474099916996	163.0118466999325	2	att	2.36455749999732	7.0
163.0130516000275	5.057095899945011	168.0701474999725	2	past	0.844551599933766	1.0
168.0708967999735	2.1010682999620087	170.1719650999355	2	fut	0.711781300022267	9.0
170.1730237999645	2.7099767000179895	172.8830004999825	2	self	1.0253244000487	9.0
172.8838311000205	5.507121399976995	178.3909524999975	2	ppl	1.40450790000614	1.0
178.3939383999155	2.691662800033015	181.0856011999485	2	arou	0.972547300043516	5.0
181.0863750000195	2.049035099917006	183.1354100999365	2	aff	0.854658799944445	6.0
183.1363026999815	3.4135018000379773	186.5498045000195	2	eng	0.841058299993165	6.0
186.5505837000155	2.5129213999020124	189.0635050999175	2	mvmt	1.58046430000104	7.0
189.0662982999995	4.607717599952025	193.6740158999515	2	delib	2.67930660001002	7.0
193.6748163999935	5.441630100016027	199.11644650000952	2	image	0.855412199976854	3.0
199.1173099999495	4.002214199980017	203.11952419992951	2	ling	0.442223299993202	8.0
203.1206884999475	3.2830531999929917	206.4037416999405	2	conf	1.21878540003672	9.0
268.2549897999915	4.441529899952002	272.6965196999435	3	att	2.27055080002174	8.0
272.6974404999695	5.895717800013017	278.5931582999825	3	past	0.875135599984787	1.0
278.5938213000255	4.05783449998097	282.6516558000065	3	fut	1.37264759989921	8.0
282.6524348000015	2.2594377999189987	284.9118725999205	3	self	1.19529890001286	7.0
284.9129132999285	1.2431445000689791	286.1560577999975	3	ppl	0.400238400092348	7.0
286.1567055999245	4.455156600102953	290.6118622000275	3	arou	2.00188220001291	5.0
290.6125955000235	6.4726713999400545	297.08526689996353	3	aff	0.912559599964879	7.0
297.0861682999595	4.50463650002996	301.5908047999895	3	eng	0.877921500010416	5.0
301.5917800999655	4.217720899964036	305.8095009999295	3	mvmt	1.81427610001992	4.0
305.8102559999745	2.4222015000410124	308.2324575000155	3	delib	1.72462120000273	4.0
308.2331477999165	5.208020900027009	313.4411686999435	3	image	0.931175100035034	7.0
313.4418217000265	2.0825254999800222	315.5243472000065	3	ling	0.567233599955216	8.0
315.5253619999335	3.222431000089955	318.7477930000235	3	conf	1.68561889999546	8.0
369.6634342999375	6.528661300079023	376.1920956000165	4	att	2.871409400017	3.0
376.1921154999355	6.006341200089025	382.1984567000245	4	past	2.93398070009425	1.0
382.1984756999365	3.6652323000599836	385.8637079999965	4	fut	0.835832700016908	3.0
385.8637466999415	3.723393700086035	389.5871404000275	4	self	1.65579760004766	9.0
389.5871565999175	3.352586399997051	392.93974299991453	4	ppl	1.19562600005884	1.0
392.9397614999385	5.548363500042001	398.4881249999805	4	arou	1.57475320005324	6.0
398.4881423999965	10.757181699970033	409.2453240999665	4	aff	0.97966599999927	4.0
409.2453403999745	7.7763296000189825	417.0216699999935	4	eng	0.852783799986355	4.0
417.0216873000085	1.9951302999400014	419.0168175999485	4	mvmt	0.567982199951075	7.0
419.0168372999825	6.553126599989014	425.5699638999715	4	delib	3.20561960001942	5.0
425.5699838000065	8.592615399974989	434.1625991999815	4	image	0.785476699937135	1.0
434.1626186000125	2.9877298999350046	437.1503484999475	4	ling	0.922112599946558	3.0
437.15036849998353	2.3553204999769832	439.5056889999605	4	conf	0.978067299933173	8.0
490.3656296999605	6.342713900026979	496.7083435999875	5	att	3.11530790000688	5.0
496.7083737999845	9.62239309994004	506.3307668999245	5	past	2.24497210001573	6.0
506.3307835999355	5.280114900088051	511.61089850002355	5	fut	0.728642900008708	3.0
511.6109148999155	4.673448600108031	516.2843635000236	5	self	1.08159350010101	6.0
516.2843835999436	1.5051795999750084	517.7895631999186	5	ppl	0.498319200007245	7.0
517.7895798999295	6.200091700070061	523.9896715999996	5	arou	2.3818358000135	7.0
523.9896866999975	7.1531670999249855	531.1428537999225	5	aff	0.565066899987869	7.0
531.1428794000014	7.103304099989941	538.2461834999914	5	eng	0.805954699986614	7.0
538.2462020000155	2.7845756999449804	541.0307776999605	5	mvmt	0.76554449996911	3.0
541.0307908999446	4.380544700077962	545.4113356000225	5	delib	2.99198859999888	3.0
545.4113546999345	8.312422999995988	553.7237776999305	5	image	1.21119070006534	7.0
553.7237954999496	1.8194670999660048	555.5432625999156	5	ling	0.698394400067627	6.0
555.5432911000164	4.985449599917047	560.5287406999335	5	conf	1.56333699997049	8.0
620.3732336000014	5.644459399976995	626.0176929999784	6	att	1.68897659995127	7.0
626.0177079999764	3.530970999971032	629.5486789999475	6	past	1.85909369995352	2.0
629.5486965999655	2.7047002000030034	632.2533967999685	6	fut	0.726586799952202	8.0
632.2534163000005	2.430083899991928	634.6835001999924	6	self	1.35669799998868	8.0
634.6835177000096	2.0440424999679863	636.7275601999776	6	ppl	0.335779199958779	8.0
636.7276083999955	4.717998699984037	641.4456070999795	6	arou	1.10446309996769	6.0
641.4456242999936	4.692723499960948	646.1383477999545	6	aff	0.817255200003274	7.0
646.1383678999905	2.873647899948992	649.0120157999395	6	eng	0.725205300026573	6.0
649.0120328999535	3.4547799000280293	652.4668127999815	6	mvmt	1.90502920001745	4.0
652.4668291999906	3.5098184000229367	655.9766476000135	6	delib	1.30805170000531	3.0
655.9766659999216	2.7077241000949925	658.6843901000166	6	image	1.35198590008076	8.0
658.6844307999775	2.9840115000259857	661.6684423000034	6	ling	0.810840899939649	4.0
661.6684601000225	6.310629299958009	667.9790893999805	6	conf	1.60858929995447	5.0
