onset	duration	offset	trial	item	RT	response
57.656600000000005	6.105998900020495	63.7625989000205	1	att	3.21488400001545	3.0
63.762793399988105	2.8947283999296047	66.6575217999177	1	past	1.34239589993376	5.0
66.65774940002089	1.8209487999557012	68.47869819997659	1	fut	1.01438429998234	5.0
68.47890759994121	2.9304456000681967	71.4093532000094	1	self	1.31121840002015	8.0
71.4095895999468	2.712748700054405	74.1223383000012	1	ppl	1.44598409999162	2.0
74.1226060999449	4.1375896000535874	78.26019569999849	1	arou	1.48252920003142	7.0
78.2604129000226	2.647335399989899	80.9077483000125	1	aff	1.27863499999512	4.0
80.9079647000305	4.2392140999432115	85.14717879997372	1	eng	1.70700409996789	2.0
85.14733509999971	2.361316199997006	87.50865129999671	1	mvmt	1.38331449998077	4.0
87.5088797999907	4.532427400000998	92.04130719999169	1	delib	2.48036970000248	7.0
92.04154579994571	4.401864400017004	96.44341019996271	1	image	1.23457199998666	4.0
96.4436215999427	2.3135327000639876	98.75715430000669	1	ling	0.778985499986447	7.0
98.75731979998571	3.933655899949997	102.6909756999357	1	conf	1.34861909993924	8.0
161.2292209999997	5.201410199981012	166.43063119998072	2	att	2.64930349995848	7.0
166.43084359996772	4.348713199957984	170.7795567999257	2	past	0.975690799998119	4.0
170.7797629999817	2.2774422999940214	173.05720529997572	2	fut	1.02220360003412	6.0
173.05734109996172	4.206886100000986	177.2642271999627	2	self	1.02818170003593	3.0
177.2644128999797	2.334720900049007	179.5991338000287	2	ppl	0.894921500002965	3.0
179.5993302000117	3.5705437000140137	183.16987390002572	2	arou	0.96953839994967	6.0
183.17010210001672	5.311562199961003	188.48166429997772	2	aff	0.948378599947318	4.0
188.4818698000287	3.8130819998910113	192.29495179991972	2	eng	0.981721699936315	2.0
192.2951641000237	3.907885699998019	196.20304980002172	2	mvmt	0.953729499946348	3.0
196.20328749996972	4.680080699966993	200.8833681999367	2	delib	1.02627230004873	8.0
200.88367719996072	2.590980399981987	203.4746575999427	2	image	1.00161100004334	7.0
203.47485080001772	2.26166229997699	205.7365130999947	2	ling	0.737232999992557	6.0
205.7367271999957	4.483758199960022	210.22048539995572	2	conf	0.815333899925463	8.0
260.8346212000007	5.6249152999380385	266.45953649993874	3	att	2.04492219991516	2.0
266.4597437000027	5.0625229999420185	271.52226669994474	3	past	1.23597949999385	6.0
271.52247430001273	2.304752199909956	273.8272264999227	3	fut	1.00521829992067	4.0
273.82744409994973	3.8581175999719903	277.6855616999217	3	self	1.00186259998009	7.0
277.6857714000047	2.883099099971048	280.56887049997573	3	ppl	1.22767489997204	2.0
280.56908729999674	3.8920060999219572	284.4610933999187	3	arou	1.03616579994559	3.0
284.4613163999867	3.528728000005003	287.9900443999917	3	aff	0.97792890004348	4.0
287.9902548999647	5.255116299959013	293.24537119992374	3	eng	1.04060379997827	4.0
293.24558409991573	4.724327600094966	297.9699117000107	3	mvmt	1.04149030009285	6.0
297.9701391999967	4.501490799942985	302.4716299999397	3	delib	1.05106810003053	4.0
302.4718507999907	7.339742899989005	309.8115936999797	3	image	1.2598113999702	4.0
309.8117852999257	2.262725700041983	312.0745109999677	3	ling	0.903379100025631	4.0
312.0747288999967	3.8957469000019955	315.9704757999987	3	conf	1.18082349991892	6.0
370.5459018999367	5.538940300001002	376.0848421999377	4	att	2.14645280002151	7.0
376.0850610999747	3.9417512000069905	380.0268122999817	4	past	1.12586699996609	8.0
380.0270229999567	1.3348009999609758	381.3618239999177	4	fut	0.849446300067939	5.0
381.3620324999917	3.9492438000160064	385.3112763000077	4	self	0.982007800019346	6.0
385.3114773000247	4.289051999919991	389.6005292999447	4	ppl	1.1482388000004	6.0
389.60079309997474	3.86150989995798	393.4623029999327	4	arou	0.893322000047192	7.0
393.4625292000257	5.62095769995301	399.0834868999787	4	aff	1.03004979994148	7.0
399.08370989993074	3.301890000001947	402.3855998999327	4	eng	1.17622660007328	4.0
402.3858214999907	6.29358339996503	408.6794048999557	4	mvmt	1.9776625999948	5.0
408.6796270000177	3.0314891999580027	411.7111161999757	4	delib	1.17245229997206	6.0
411.7113362000217	3.2202933999939773	414.9316296000157	4	image	1.26820159994531	7.0
414.9318439000177	1.7521028999469763	416.6839467999647	4	ling	0.695548099931329	7.0
416.6841709999257	3.945159900002011	420.6293308999277	4	conf	1.12632280006073	8.0
474.1528997999977	7.164741599931972	481.3176413999297	5	att	1.61334069992881	7.0
481.3185974999917	3.4159782000360224	484.73457570002773	5	past	1.12850580003578	9.0
484.7353846000167	2.730874200002006	487.4662588000187	5	fut	0.82792879990302	1.0
487.4669843999557	3.7347478000449996	491.2017322000007	5	self	1.1350611000089	7.0
491.2025543999747	2.2090369999639847	493.4115913999387	5	ppl	0.629381999955513	7.0
493.4125357000277	5.127300599939986	498.5398362999677	5	arou	1.11613439989742	7.0
498.5404820999957	3.1492824000299606	501.68976450002566	5	aff	0.915454900008626	8.0
501.69035549998574	3.394169399981024	505.08452489996677	5	eng	1.18101139995269	2.0
505.08534419991867	4.117105800076047	509.2024499999947	5	mvmt	0.881046100053936	6.0
509.2035378000127	6.2988247999450095	515.5023625999577	5	delib	1.86471669992898	7.0
515.5031401999416	3.5506761000730194	519.0538163000147	5	image	1.31498909997754	7.0
519.0545338000067	1.5665721999240532	520.6211059999307	5	ling	0.752752800006419	6.0
520.6216840000246	2.4412351999200155	523.0629191999446	5	conf	0.692790899891406	8.0
578.6586474999907	8.322950599947944	586.9815980999387	6	att	1.6968439000193	9.0
586.9816157999577	4.5783334000730065	591.5599492000307	6	past	1.35167900007218	2.0
591.5599707999627	3.0879658999620005	594.6479366999247	6	fut	0.657264900044538	7.0
594.6479549999476	3.316508000018075	597.9644629999657	6	self	0.862231299979612	3.0
597.9644802999807	4.259798899990983	602.2242791999716	6	ppl	1.22899169998709	7.0
602.2242967999897	2.7081920999339673	604.9324888999237	6	arou	1.07678390003275	7.0
604.9325078999517	2.09076739999	607.0232752999417	6	aff	0.884877800010145	7.0
607.0232896999347	4.790600300067922	611.8138900000026	6	eng	0.837030100054108	4.0
611.8139082000247	3.8667606998939164	615.6806688999186	6	mvmt	1.06275069992989	4.0
615.6806875999447	3.1115627000099266	618.7922502999546	6	delib	1.46300900005735	4.0
618.7922719000027	3.3147598999789807	622.1070317999817	6	image	1.30955739994533	7.0
622.1070511000127	2.1342963000059854	624.2413474000186	6	ling	0.954267699969932	6.0
624.2413648999186	4.507000500104027	628.7483654000226	6	conf	1.87801560002845	7.0
