onset	duration	cue	constant1	timestamp	stimulus_coherence	response_time	response	constant2
28.0679286	0.7957026999210939	1	0	0	0	0	0	0
28.863631299929693	0.7948149000294507	2	49	546891.6763	56.25	1.0812058000592515	2	0
29.658446199959144	0.7950093999970704	2	49	546892.1111	100	0.7211711	1	0
30.453455599956214	0.7986254000570625	2	49	546892.9592	93.75	0.7742682000389323	2	0
31.252081000013277	0.7947046000044793	2	49	546893.9438	75	0.9602202	2	0
32.046785600017756	0.7930167999584228	1	0	0	0	0	0	0
32.83980239997618	0.7956266000401229	2	49	546895.5082	75	0.9369609999703243	2	0
33.635429	0.7949251999380067	2	49	546896.1842	87.5	0.8173473000060767	2	0
34.43035419995431	0.7956894000526518	2	49	546897.115	75	0.9531320000533015	2	0
35.22604360000696	0.8360015000216663	2	49	546897.9625	75	1.0049584999214858	2	0
36.06204510002863	0.7993443999439478	2	49	546898.7863	68.75	0.9927803999744356	2	0
36.861389499972574	0.7966448999941349	2	49	546899.4074	93.75	0.8145153999794275	2	0
37.65803439996671	0.7932020999724045	1	0	0	0	0	0	0
38.451236499939114	0.7945444	2	49	546901.0286	87.5	0.8458709000842646	2	0
39.24578090000432	0.7964000999927521	2	49	546901.9244	75	0.9471822999184951	2	0
40.04218099999707	0.7947289999574423	2	49	546902.8527	56.25	1.0790568999946117	2	0
40.836909999954514	0.7972229999722913	2	49	546903.4396	81.25	0.8712574	2	0
41.634132999926805	0.7932724000420421	2	49	546904.2475	81.25	0.8819419000064954	2	0
42.42740539996885	0.7943761999486014	2	49	546905.1405	68.75	0.9816457000561059	2	0
43.22178159991745	0.7976846001110971	2	49	546905.6864	100	0.7331373000051826	1	0
44.019466200028546	0.7911250999895856	2	49	546906.5556	93.75	0.8046491999411955	2	0
44.81059130001813	0.7919150999514386	2	49	546907.6316	56.25	1.0895546999527141	2	0
45.60250639996957	0.7901482000015676	1	0	0	0	0	0	0
46.39265459997114	0.7903737999731675	2	49	546908.8367	100	0.7125641000457108	1	0
47.183028399944305	0.7912865000544116	2	49	546909.5558	87.5	0.6412837000098079	1	0
47.97431489999872	0.7908130999421701	2	49	546910.5736	81.25	0.8678305000066757	2	0
48.76512799994089	0.7916679000481963	2	49	546911.336	87.5	0.8393899999791756	2	0
49.55679589998908	0.7921383	2	49	546911.9989	93.75	0.7106229999335483	1	0
50.34893420001026	0.7892214999301359	2	49	546912.9069	87.5	0.8265106999315321	2	0
51.1381557	0.7893497000914067	2	49	546913.7451	81.25	0.8754719999851659	2	0
51.927505400031805	0.7920556999742985	2	49	546914.4978	87.5	0.8388268999988213	2	0
52.7195611	0.7912452999735251	1	0	0	0	0	0	0
53.51080639997963	0.7917810999788344	2	49	546915.9549	93.75	0.7126487999921665	1	0
54.30258749995846	0.7936406000517309	2	49	546916.6361	81.25	0.6020627999678254	1	0
55.096228100010194	0.7960902999620885	2	49	546917.5952	93.75	0.7674754000036046	2	0
55.89231839997228	0.7938073000404984	2	49	546918.4431	87.5	0.8192925000330433	2	0
56.68612570001278	0.7964623000007123	2	49	546919.3131	81.25	0.8954881000099704	2	0
57.48258800001349	0.7948957999469712	2	49	546920.1443	75	0.9302159	2	0
58.277483799960464	0.7961410999996588	2	49	546920.8363	87.5	0.8273005000082776	2	0
59.07362489996012	0.7971287000691518	2	49	546921.6154	93.75	0.8103259999770671	2	0
59.870753600029275	0.7943494999781251	1	0	0	0	0	0	0
60.6651031	0.7977948000188917	2	49	546923.4456	62.5	1.0490210999269038	2	0
61.46289790002629	0.7926601999206468	2	49	546923.8722	93.75	0.6778707999037579	1	0
62.25555809994694	0.7942266999743879	2	49	546924.6994	93.75	0.7124076000181958	1	0
63.049784799921326	0.7962862000567839	2	49	546925.5294	100	0.7481187001103535	1	0
63.84607099997811	0.7999218000331894	2	49	546926.3116	100	0.7340471999486908	1	0
64.6459928	0.7936431999551132	2	49	546927.0473	93.75	0.6698770999209955	1	0
65.43963599996641	0.7929742999840528	2	49	546927.8726	93.75	0.7014668000629172	1	0
66.23261029995047	0.7966070000547916	2	49	546929.0216	62.5	1.0575018000090495	2	0
67.02921730000526	0.8000157999340445	2	49	546929.3617	81.25	0.6010319999186322	1	0
67.8292331	0.7952891000313684	2	49	546929.9207	50	0.3599714000010863	1	0
68.62452219997067	0.7968504000455141	2	49	546931.0155	87.5	0.6595395000185817	1	0
69.42137260001618	0.7961172999348491	2	49	546932.1038	75	0.9509038999676704	2	0
70.21748989995103	0.7956722000380978	2	49	546932.7925	87.5	0.8435642	2	0
71.01316209998913	0.7931943000294268	2	49	546933.6976	75	0.9529840999748558	2	0
71.80635640001856	0.7969585999380797	1	0	0	0	0	0	0
72.60331499995664	0.7965691999997944	2	49	546935.1157	93.75	0.7809181000338867	2	0
73.39988419995643	0.7950939000584185	1	0	0	0	0	0	0
74.19497810001485	0.7950104000046849	2	49	546936.637	93.75	0.7105861000018194	1	0
74.98998850001954	0.7971389999147505	2	49	546937.5037	93.75	0.7822245999705046	2	0
75.78712749993429	0.7993141000624746	1	0	0	0	0	0	0
76.58644159999676	0.7952627999475226	2	49	546939.1177	93.75	0.7998095	2	0
77.38170439994428	0.7952511999756098	2	49	546940.0712	75	0.9579900000244379	2	0
78.17695559991989	0.7956173000857234	1	49	546940.7789	81.25	0.8704609000124037	2	0
78.97257290000562	0.7953170000109822	2	0	0	0	0	0	0
79.7678899	0.7973656000103801	2	49	546942.389	81.25	0.8895870000123978	2	0
80.56525550002698	0.7954700998961926	2	49	546943.312	62.5	1.0152680999599397	2	0
81.36072559992317	0.7935710001038387	2	49	546943.9009	93.75	0.8087327000685036	2	0
82.15429660002701	0.7935964999487624	2	49	546944.9079	62.5	1.0221480999607593	2	0
82.94789309997577	0.7985942	2	49	546945.454	93.75	0.7746293999953195	2	0
83.7464873	0.7948332999367267	1	0	0	0	0	0	0
84.54132059996482	0.7937154000392184	2	49	546947.0812	93.75	0.8084298999747261	2	0
85.33503600000404	0.7959626999218017	2	49	546948.0448	68.75	0.9782969999359921	2	0
86.13099869992584	0.7934267000528052	2	49	546948.5273	93.75	0.6647974000079557	1	0
86.92442539997865	0.7954772999510169	2	49	546949.3421	93.75	0.6861826999811456	1	0
87.71990269992966	0.7941735000349581	2	49	546950.2772	87.5	0.8258110000751913	2	0
88.51407619996462	0.7936418000608683	2	49	546951.0094	100	0.7638723000418395	1	0
89.30771800002549	0.7973243999294937	2	49	546951.9772	75	0.9380359000060707	2	0
90.10504239995498	0.7934049000032246	1	0	0	0	0	0	0
90.8984473	0.7945657999953255	2	49	546953.3544	100	0.7244754	1	0
91.69301309995353	0.7961391999851912	2	49	546954.188	100	0.7635342000285164	1	0
92.48915229993872	0.7940858	2	49	546955.0932	81.25	0.8725942000746727	2	0
93.28323810000438	0.7971063000150025	2	49	546955.8084	93.75	0.7937355999602005	2	0
94.08034440001938	0.7941400000127032	2	49	546956.7767	68.75	0.9648730999324471	2	0
94.87448440003209	0.7940709	2	49	546957.3411	100	0.7351274999091402	1	0
95.66855529998429	0.7937856999924406	2	49	546958.3468	75	0.9467814000090584	2	0
96.46234099997673	0.8002107000211254	2	49	546958.8485	87.5	0.6547112000407651	1	0
97.26255169999786	0.7958392000291497	2	49	546959.7117	100	0.7176706999307498	1	0
98.0583909	0.7965691999997944	2	49	546960.8077	62.5	1.0178121998906136	2	0
98.8549601	0.7970038999337703	2	49	546961.3695	93.75	0.7830418999074027	2	0
99.65196399996057	0.7957347000483423	2	49	546962.1516	93.75	0.7681262000696734	2	0
100.44769870000891	0.7990931000094861	2	49	546963.0226	87.5	0.8434368999442086	2	0
101.2467918000184	0.7950915999244899	2	49	546963.9526	68.75	0.9743037999141961	2	0
102.04188339994289	0.7967138000531122	2	49	546964.9319	50	1.1584993000142276	2	0
102.8385972	0.7969919999595731	2	49	546965.5946	62.5	1.0245564000215381	2	0
103.63558919995558	0.7938891	2	0	0	0	0	0	0
104.42947829992045	0.7952816000906751	2	49	546966.7944	87.5	0.6334027000702918	1	0
105.22475990001112	0.7960075999144465	2	49	546967.6149	87.5	0.6586527000181377	1	0
106.02076749992557	0.7965239000041038	2	49	546968.2141	62.5	0.4618807000806555	1	0
106.81729139992967	0.7941947000799701	2	49	546969.3589	93.75	0.8101435001008213	2	0
107.61148610000964	0.7939253	2	49	546970.3478	68.75	1.0048846999416128	2	0
108.40541140001733	0.7970443000085652	2	49	546970.991	87.5	0.8540776999434456	2	0
109.2024557000259	0.7951656999066472	2	49	546971.8879	75	0.9540093999821693	2	0
109.99762139993254	0.7951230000471696	2	49	546972.4616	100	0.7324937999946997	1	0
110.79274439997971	0.7943978999974206	2	49	546973.545	62.5	1.0207378000486642	2	0
111.58714229997713	0.7936857000458986	2	49	546974.1399	87.5	0.8212835999438539	2	0
112.38082800002303	0.7963127	2	0	0	0	0	0	0
113.17714069993235	0.7936886000679806	1	49	546975.4823	81.25	0.5737296000588685	1	0
113.97082930000033	0.7934522000141442	2	0	0	0	0	0	0
114.76428150001448	0.7926396999973804	2	49	546977.0035	68.75	0.5077282999409363	1	0
115.55692120001186	0.7944195	2	49	546977.9862	93.75	0.6978031999897212	1	0
116.35134069994092	0.7977865000721067	2	49	546978.8793	93.75	0.7965076999971643	2	0
117.14912720001303	0.7984429999487475	2	0	0	0	0	0	0
117.94757019996177	0.7999726000707597	2	49	546980.2782	81.25	0.5991317000007257	1	0
118.74754280003253	0.7953484999015927	2	49	546981.2757	93.75	0.7966794	2	0
119.54289129993413	0.7975827000336722	2	49	546981.9924	100	0.7180828000418842	1	0
120.3404739999678	0.7959834999637678	1	0	0	0	0	0	0
121.13645749993157	0.7939600000390783	2	49	546983.6857	87.5	0.8177296000067145	2	0
121.93041749997064	0.7947487999917939	2	49	546984.4746	93.75	0.8126707000192255	2	0
122.72516629996244	0.7977484000148252	2	49	546985.3646	81.25	0.9079477000050247	2	0
123.52291469997726	0.7997894	2	49	546986.3394	56.25	1.0849995999597013	2	0
124.32270409993362	0.7956339000957087	2	49	546986.838	93.75	0.7838641999987885	2	0
125.11833800002933	0.7960858999285847	2	49	546987.7565	81.25	0.9066819999134168	2	0
125.91442389995791	0.7962197000160813	2	0	0	0	0	0	0
126.71064359997399	0.7965443000430241	2	0	0	0	0	0	0
127.50718790001702	0.7948427000083029	2	49	546989.9115	93.75	0.6728131999261677	1	0
128.30203060002532	0.7983893000055104	2	49	546990.9086	81.25	0.8751063999952748	2	0
129.10041990003083	0.7937172999372706	2	49	546991.6807	87.5	0.8488536999793723	2	0
129.8941371999681	0.7957079999614507	2	49	546992.4159	93.75	0.7902753000380471	2	0
130.68984519992955	0.7941288000438362	1	49	546993.3968	68.75	0.9754562000744045	2	0
131.4839739999734	0.7935260999947786	1	0	0	0	0	0	0
132.27750009996817	0.7961931000463665	2	0	0	0	0	0	0
133.07369320001453	0.7998362999642268	2	49	546995.3531	75	0.5479522999376059	1	0
133.87352949997876	0.8017108000349253	2	49	546996.3795	93.75	0.7745244	2	0
134.67524030001368	0.7936027999967337	2	49	546997.3958	68.75	0.9890439999289811	2	0
135.46884310001042	0.7931127999909222	2	49	546998.2991	56.25	1.0988196999533102	2	0
136.26195590000134	0.7954581999219954	2	49	546999.1121	50	1.118674699915573	2	0
137.05741409992334	0.8001733000855893	2	49	546999.76	68.75	0.9711387000279501	2	0
137.85758740000892	0.7919766999548301	2	49	547000.353	93.75	0.7639494999311864	2	0
138.64956409996375	0.794713	2	49	547001.1897	93.75	0.8086211000336334	2	0
139.4442771000322	0.7935967999510467	2	49	547001.9603	93.75	0.7845546	2	0
140.23787389998324	0.7943016999633983	2	0	0	0	0	0	0
141.03217559994664	0.7935979	2	0	0	0	0	0	0
141.82577350002248	0.7952038999646902	2	49	547004.0901	75	0.5328714000061154	1	0
142.62097739998717	0.7920581999933347	2	49	547004.9321	81.25	0.5796912999358028	1	0
143.4130355999805	0.7946187000488862	2	49	547005.8892	100	0.7447119	1	0
144.2076543000294	0.7941585999215022	2	0	0	0	0	0	0
145.0018128999509	0.7960130000719801	2	49	547007.3733	87.5	0.6400147000094876	1	0
145.79782590002287	0.7938420999562368	1	0	0	0	0	0	0
146.5916679999791	0.7953960000304505	2	49	547009.1828	87.5	0.8596920999698341	2	0
147.38706400000956	0.7956126999342814	2	49	547009.9666	87.5	0.8480230999412015	2	0
148.18267669994384	0.7963362000882626	2	49	547011.2164	31.25	1.3022372000850737	2	0
148.9790129000321	0.7958073999034241	2	49	547011.5265	93.75	0.8160554999485612	2	0
149.77482029993553	0.7962015999946743	2	0	0	0	0	0	0
150.5710218999302	0.7953415000811219	2	49	547013.1785	81.25	0.8759798	2	0
151.36636340001132	0.7978280999232084	2	49	547013.8844	93.75	0.7865593999158591	2	0
152.16419149993453	0.7935864999890327	2	49	547014.6186	100	0.7229726000223309	1	0
152.95777799992356	0.795397	2	49	547015.6814	68.75	0.9921527000842616	2	0
153.75317499996163	0.7965251000132412	2	0	0	0	0	0	0
154.54970009997487	0.7916360000381246	2	49	547017.328	62.5	1.046821799944155	2	0
155.3413361	0.7992551999632269	2	49	547018.1495	56.25	1.0766706999856979	2	0
156.14059129997622	0.8015066	2	49	547018.7156	87.5	0.8434903000015765	2	0
156.94209789996967	0.7942462000064552	2	0	0	0	0	0	0
157.73634409997612	0.7958352999994531	2	49	547019.9319	62.5	0.4640859999926761	1	0
158.53217939997558	0.7923969000112265	1	0	0	0	0	0	0
159.3245762999868	0.7936601999681443	2	0	0	0	0	0	0
160.11823649995495	0.7973990000318736	2	49	547022.3181	62.5	0.4684221000643447	1	0
160.91563549998682	0.7934337999904528	2	49	547023.3067	87.5	0.6596098	1	0
161.70906929997727	0.7997245	2	49	547024.0866	87.5	0.6460348999826238	1	0
162.50879380002152	0.7946667999494821	2	49	547024.8368	81.25	0.5965146999806166	1	0
163.3034606	0.7953802000265568	2	49	547025.8988	87.5	0.8638608000474051	2	0
164.09884079999756	0.7959333999315277	2	49	547026.8201	68.75	0.9898131999652833	2	0
164.8947741999291	0.7924047000706196	2	49	547027.6078	68.75	0.9815413	2	0
165.6871788999997	0.7971977000124753	2	49	547028.1417	100	0.7230770000023767	1	0
166.48437660001218	0.7958913999609649	2	49	547029.1471	75	0.9312404999509454	2	0
167.28026799997315	0.7946816999465227	2	49	547029.6269	81.25	0.6152024	1	0
168.07494969991967	0.7933529000729322	2	0	0	0	0	0	0
168.8683025999926	0.7943797999760136	1	49	547031.481	81.25	0.8811986999353394	2	0
169.66268239996862	0.7950464	2	0	0	0	0	0	0
170.4577288000146	0.7939227999886498	2	49	547033.0015	93.75	0.8122731999028474	2	0
171.25165160000324	0.7969246000284329	2	49	547033.815	87.5	0.8318870000075549	2	0
172.04857620003168	0.7926837999839336	2	49	547034.4864	93.75	0.7063529998995364	1	0
172.8412600000156	0.7930625999579206	2	49	547035.6501	56.25	1.077318099909462	2	0
173.63432259997353	0.7969914999557659	2	0	0	0	0	0	0
174.4313140999293	0.7931865000864491	2	49	547036.606	62.5	0.4432368000270799	1	0
175.22450060001574	0.7944446000037715	2	49	547037.2885	50	0.33253639994654804	1	0
176.01894520001952	0.7972984999651089	1	0	0	0	0	0	0
176.81624369998462	0.7955439999932423	2	49	547039.3993	87.5	0.8515558999497443	2	0
177.61178769997787	0.7966466000070795	2	49	547040.4173	56.25	1.0740018000360578	2	0
178.40843429998495	0.7950980999739841	2	0	0	0	0	0	0
179.20353239995893	0.7932847000192851	2	49	547041.4494	68.75	0.5143717000028118	1	0
179.99681709997822	0.7960667000152171	2	49	547042.0825	50	0.35419099999126047	1	0
180.79288379999343	0.7949523000279441	1	0	0	0	0	0	0
181.58783610002138	0.7958487	2	49	547044.1357	87.5	0.8164307998958975	2	0
182.38368480000645	0.7920245999703184	2	49	547044.9596	87.5	0.8443922000005841	2	0
183.17570939997677	0.7917038999730721	2	0	0	0	0	0	0
183.96741329994984	0.7939079999923706	1	0	0	0	0	0	0
184.7613212999422	0.7949004999827594	2	49	547047.2742	93.75	0.7814155999803916	2	0
185.55622179992497	0.7945642000995576	2	0	0	0	0	0	0
186.35078600002453	0.7959286998957396	2	0	0	0	0	0	0
187.14671469992027	0.7946873001055792	2	49	547049.8466	68.75	0.9684334000339732	2	0
187.94140200002585	0.7932530998950824	2	49	547050.5029	87.5	0.8299769998993725	2	0
188.73465509992093	0.7940411000745371	2	0	0	0	0	0	0
189.52869619999547	0.7951404999475926	2	49	547051.8878	87.5	0.6276220999425277	1	0
190.32383669994306	0.7945453	2	49	547052.8068	100	0.7515175000298768	1	0
191.11838200001512	0.7972800999414176	2	49	547053.6619	93.75	0.8120826999656856	2	0
191.91566209995653	0.7940369000425562	2	49	547054.8177	43.75	1.1705350000411272	2	0
192.7096989999991	0.7940368999261409	2	49	547055.34	81.25	0.8988187999930233	2	0
193.50373589992523	0.7918610000051558	2	49	547056.162	75	0.9268255000934005	2	0
194.2955968999304	0.7964572000782937	2	0	0	0	0	0	0
195.09205410000868	0.7934811000013724	1	49	547057.5491	100	0.7256024000234902	1	0
195.88553520001005	0.7992859999649227	2	49	547058.813	43.75	1.195941700018011	2	0
196.68482119997498	0.7947224	2	49	547059.0973	93.75	0.6810291	1	0
197.47954359999858	0.7980745999375358	2	49	547060.0112	93.75	0.8001665000338107	2	0
198.27761819993611	0.7975346	2	0	0	0	0	0	0
199.07515279995278	0.7958849	1	0	0	0	0	0	0
199.87103769998066	0.7954527	2	49	547062.2596	87.5	0.6570986999431625	1	0
200.6664903999772	0.7946904000127688	2	49	547063.3095	81.25	0.9115164000540972	2	0
201.46118079998996	0.7945557000348344	2	49	547064.4943	31.25	1.3016777000157163	2	0
202.2557365000248	0.7950774999335408	2	49	547064.9442	75	0.9569940998917446	2	0
203.05081399995834	0.7980248000239953	2	49	547065.7193	75	0.9369690000312403	2	0
203.84883879998233	0.7935953999403864	1	0	0	0	0	0	0
204.64243419992272	0.8004795000888407	2	49	547067.4474	56.25	1.073452900047414	2	0
205.44291370001156	0.7936390999238938	2	49	547067.9962	87.5	0.8218483999371529	2	0
206.23655279993545	0.7955637000268325	2	49	547069.1855	37.5	1.2174240000313148	2	0
207.03211649996229	0.7940180000150576	2	49	547069.5343	93.75	0.7706914000445977	2	0
207.82613449997734	0.7949574999511242	2	49	547070.4384	81.25	0.8807496000081301	2	0
208.62109199992847	0.7917311	2	49	547071.4225	56.25	1.069929699995555	2	0
209.41282309999224	0.7978475999552757	2	49	547072.2164	56.25	1.0721321000019088	2	0
210.2106706999475	0.7977345	2	49	547072.9511	68.75	1.0089324000291526	2	0
211.0084051999729	0.7965765000553802	2	49	547073.7135	68.75	0.9736176000442356	2	0
211.8049817000283	0.7955228999489918	2	49	547074.4929	75	0.9564680999610573	2	0
212.60050459997728	0.7934322999790311	2	49	547075.359	62.5	1.0270187000278383	2	0
213.39393689995632	0.7990237000631168	2	49	547075.9837	87.5	0.8582737999968231	2	0
214.19296060001943	0.7950319999363273	2	0	0	0	0	0	0
214.98799259995576	0.7949295	2	0	0	0	0	0	0
215.7829220999265	0.7963761000428349	2	49	547078.4509	75	0.9364770000101998	2	0
216.57929819996934	0.7960739999543875	2	49	547079.0996	93.75	0.7888607999775559	2	0
217.37537219992373	0.7941752000479028	2	49	547079.9848	81.25	0.8779127000598237	2	0
218.16954739997163	0.7959419999970123	2	49	547080.7248	87.5	0.8238146000076085	2	0
218.96548939996865	0.7948806999484077	2	49	547081.6696	68.75	0.9726299999747425	2	0
219.76037009991705	0.7954706000164151	2	49	547082.4818	68.75	0.9899974000873044	2	0
220.55584069993347	0.7955824000528082	2	49	547083.0313	100	0.7439693	1	0
221.35142309998628	0.7950666999677196	2	49	547083.8753	93.75	0.7923716999357566	2	0
222.1464898	0.7956491999793798	2	49	547084.9261	62.5	1.0481382000725716	2	0
222.94213899993338	0.7928391000023112	2	49	547085.8082	50	1.1345433000242338	2	0
223.7349780999357	0.7965316000627354	2	49	547086.5882	56.25	1.1217497000470757	2	0
224.53150969999842	0.794887	2	49	547087.112	87.5	0.8490220999810845	2	0
225.3263966999948	0.8006795999826863	2	49	547088.0811	62.5	1.0232781999511644	2	0
226.1270762999775	0.7944901	2	49	547088.639	93.75	0.7804879000177607	2	0
226.92156639997847	0.7943796999752522	2	0	0	0	0	0	0
227.71594609995373	0.7933618000242859	2	49	547089.996	75	0.5485991999739781	1	0
228.5093079	0.7931707999669015	2	49	547090.7102	68.75	0.4694022999610752	1	0
229.3024786999449	0.8009055000729859	2	49	547091.8434	93.75	0.8094304000260308	2	0
230.1033842000179	0.7986397999338806	2	49	547092.7812	75	0.9463102999143302	2	0
230.90202399995178	0.7977457	2	49	547093.5763	75	0.9428431000560522	2	0
231.69976969994605	0.7961798	2	49	547094.3653	75	0.9340667000506073	2	0
232.49594950000755	0.7974745999090374	2	49	547095.1376	81.25	0.9102189999539405	2	0
233.2934240999166	0.7967268000356853	2	49	547095.9355	81.25	0.9106395000126213	2	0
234.09015089995228	0.7966912	2	49	547096.8625	62.5	1.040912099997513	2	0
234.88684209994972	0.7981776000233367	2	49	547097.6493	62.5	1.0309413999784738	2	0
235.68501969997305	0.7929464000044391	2	49	547098.4837	56.25	1.0671633000019938	2	0
236.4779660999775	0.7996129000093788	2	0	0	0	0	0	0
237.27757899998687	0.8000492999562994	2	49	547099.4402	62.5	0.43117540003731847	1	0
238.07762829994317	0.7927194000221789	2	49	547100.6013	93.75	0.7921988000161946	2	0
238.87034769996535	0.7911320000421256	2	49	547101.7394	50	1.137584300013259	2	0
239.66147970000748	0.7918185999151319	2	49	547102.2285	87.5	0.8355831999797374	2	0
240.4532982999226	0.7942657000385225	2	49	547102.9816	93.75	0.7968429001048207	2	0
241.24756399996113	0.7956580000463873	2	49	547103.9716	68.75	0.9925299000460654	2	0
242.04322200000752	0.7938432999653742	2	49	547104.6445	81.25	0.8697718000039458	2	0
242.8370652999729	0.7961913000326604	2	49	547105.4607	81.25	0.8921518999850377	2	0
243.63325660000555	0.7943979999981821	1	0	0	0	0	0	0
244.42765460000373	0.7935954999411479	2	49	547107.1191	75	0.9599641999229789	2	0
245.22125009994488	0.7969446000643075	2	49	547107.7708	87.5	0.8180381000274792	2	0
246.0181947000092	0.7957238999661058	2	49	547108.5666	93.75	0.8169259999413043	2	0
246.8139185999753	0.7934269000543281	2	49	547109.3658	87.5	0.8203796000452712	2	0
247.60734550002962	0.7950925999321043	2	49	547110.5311	43.75	1.192263999953866	2	0
248.40243809996173	0.7986920999828726	2	49	547110.998	87.5	0.8640932000707835	2	0
249.2011301999446	0.7937449000310153	2	49	547111.8137	81.25	0.8810697000008076	2	0
249.99487509997562	0.8004817999899387	2	49	547112.6919	75	0.9655282000312582	2	0
250.79535689996555	0.7925768999848515	2	49	547113.5169	68.75	0.9900270999642089	2	0
251.5879337999504	0.7936286000767723	2	49	547114.4379	50	1.1184700999874622	2	0
252.38156240002718	0.7974861	2	49	547115.29	43.75	1.1769142999546602	2	0
253.17904850002378	0.7982173999771476	2	0	0	0	0	0	0
253.97726590000093	0.7925614999840036	2	49	547116.2194	68.75	0.5106666999636218	1	0
254.76982739998493	0.7936083000386134	2	49	547117.3539	87.5	0.8526308999862522	2	0
255.56343570002355	0.7967042999807745	2	49	547118.2862	68.75	0.9912807999644428	2	0
256.3601400000043	0.7944368999451399	2	0	0	0	0	0	0
257.15457689994946	0.7936277000699192	2	49	547119.6865	93.75	0.8004171000793576	2	0
257.9482046000194	0.7970857999753207	2	49	547120.6284	75	0.9486980999354273	2	0
258.7452903999947	0.7933535999618471	2	49	547121.5813	56.25	1.1045386999612674	2	0
259.53864399995655	0.7974697999889031	2	49	547122.2974	62.5	1.027254799962975	2	0
260.33611379994545	0.7976926000555977	2	49	547123.2161	50	1.148545500007458	2	0
261.13380640000105	0.7959892000071704	2	49	547123.7074	87.5	0.8420928999548778	2	0
261.9297956000082	0.7958228000206873	2	49	547124.4688	93.75	0.8074939999496564	2	0
262.7256184000289	0.7942226999439299	2	49	547125.3173	87.5	0.8602050999179482	2	0
263.51984109997284	0.7929301999974996	2	49	547125.9752	100	0.7239263999508694	1	0
264.31277129997034	0.7976191999623552	2	49	547126.7114	87.5	0.6671805999940261	1	0
265.1103904999327	0.7945413000416011	2	49	547127.9486	56.25	1.1067106000846252	2	0
265.9049317999743	0.7935295000206679	2	49	547128.4998	87.5	0.8633632999844849	2	0
266.69846129999496	0.7948349999496713	2	49	547129.4872	62.5	1.0572713000001386	2	0
267.49329629994463	0.7942668000468984	2	49	547130.0234	93.75	0.7986748000839725	2	0
268.28756309999153	0.7947207000106573	2	49	547131.2278	43.75	1.2087442999472842	2	0
269.0822838000022	0.7958084000274539	2	0	0	0	0	0	0
269.87809220002964	0.7946288	2	49	547132.6526	62.5	1.0430095999035984	2	0
270.6727209999226	0.7942961000371724	1	0	0	0	0	0	0
271.4670170999598	0.7954050999833271	2	0	0	0	0	0	0
272.2624221999431	0.7987226999830455	2	49	547134.6167	87.5	0.6228517000563443	1	0
273.06114489992615	0.7950069000944495	2	0	0	0	0	0	0
273.8561518000206	0.7971197000006214	1	0	0	0	0	0	0
274.6532715000212	0.8012823999160901	2	49	547137.2289	87.5	0.8441082999343053	2	0
275.4545538999373	0.7933309000218287	2	49	547138.1296	75	0.9435517999809235	2	0
276.24788479995914	0.7960058000171557	2	49	547138.5508	81.25	0.5714369000634179	1	0
277.0438905999763	0.7936104000546038	2	0	0	0	0	0	0
277.8375010000309	0.7936174999922514	2	49	547140.0888	75	0.5197813999839127	1	0
278.63111850002315	0.7969764999579638	1	49	547140.6671	43.75	0.30449209990911186	1	0
279.4280949999811	0.7951296999817714	2	49	547142.36	43.75	1.2004140999633819	2	0
280.2232246999629	0.7973291999660432	2	49	547142.939	68.75	0.9842738000443205	2	0
281.0205538999289	0.7993389000184834	2	49	547143.5551	93.75	0.8030529000097886	2	0
281.8198927999474	0.7924152000341564	2	49	547144.7257	43.75	1.1743310000747442	2	0
282.61230799998157	0.7942862999625504	1	0	0	0	0	0	0
283.4065942999441	0.7972457	2	0	0	0	0	0	0
284.20383999997284	0.7931945000309497	2	49	547146.9158	68.75	0.9805319999577478	2	0
284.9970345000038	0.7963986999820918	2	49	547147.651	75	0.9225246	2	0
285.7934331999859	0.7952604000456631	2	0	0	0	0	0	0
286.58869360003155	0.7917855998966843	2	49	547149.4008	56.25	1.0806019998854026	2	0
287.38047919992823	0.7965204000938684	2	0	0	0	0	0	0
288.1769996000221	0.7953536999411881	1	0	0	0	0	0	0
288.9723532999633	0.7947199000045657	2	0	0	0	0	0	0
289.76707319996785	0.7959696999751031	2	0	0	0	0	0	0
290.56304289994296	0.7994628000305966	2	0	0	0	0	0	0
291.36250569997355	0.7964860999491066	2	0	0	0	0	0	0
292.15899179992266	0.7942295999964699	2	49	547154.6045	93.75	0.7140336000593379	1	0
292.95322139991913	0.7949855000479147	2	49	547155.1325	62.5	0.44776370003819466	1	0
293.74820689996704	0.7924300000304356	2	49	547155.8745	56.25	0.3948639000300318	1	0
294.5406368999975	0.7965768999420106	2	49	547156.8099	75	0.5378353999694809	1	0
295.3372137999395	0.7941551000112668	2	49	547157.9655	81.25	0.8968386000487953	2	0
296.13136889995076	0.7975504000205547	2	49	547158.6636	93.75	0.8007396999746561	2	0
296.9289192999713	0.7989862	2	49	547159.5085	87.5	0.8480609999969602	2	0
297.7279054999817	0.7942171000177041	2	49	547160.3795	75	0.9201406999491155	2	0
298.5221225999994	0.7952702000038698	1	0	0	0	0	0	0
299.3173928000033	0.7967236000113189	2	49	547161.8048	100	0.7559484000084922	1	0
300.1141164000146	0.7975964999059215	2	49	547162.5786	100	0.7330067999428138	1	0
300.91171289992053	0.7951416000723839	2	49	547163.6226	68.75	0.9793782000197098	2	0
301.7068544999929	0.7966633000178263	2	49	547164.5669	50	1.1285264999605715	2	0
302.50351780001074	0.7936098999343812	2	49	547164.9548	100	0.7197887999936938	1	0
303.2971276999451	0.7951025000074878	2	49	547165.8058	93.75	0.7772087000776082	2	0
304.0922301999526	0.7967124000424519	2	49	547166.9811	50	1.1574135000118986	2	0
304.88894259999506	0.7989941999549046	2	0	0	0	0	0	0
305.68793679994997	0.7928677	2	49	547168.2051	93.75	0.7856478000758216	2	0
306.4808044999372	0.7964003999950364	2	49	547169.2539	62.5	1.0416357000358403	2	0
307.27720489993226	0.7939301000442356	2	49	547169.7635	100	0.7548222000477836	1	0
308.0711349999765	0.7953942000167444	2	49	547170.5201	100	0.7174921999685466	1	0
308.86652919999324	0.7940617999993265	2	0	0	0	0	0	0
309.66059099999256	0.7947601999621838	2	49	547172.1792	93.75	0.7871328999754041	2	0
310.45535119995475	0.7985558	2	49	547172.8481	87.5	0.6612783999880776	1	0
311.2539069999475	0.7944867999758571	2	49	547173.7529	100	0.7675012000836432	1	0
312.04839379992336	0.7962470001075417	2	49	547174.354	81.25	0.5740906000137329	1	0
312.8446408000309	0.7947655998868868	2	49	547175.1923	87.5	0.6162017	1	0
313.6394063999178	0.7935632000444457	2	49	547176.0679	93.75	0.6970321000553668	1	0
314.43296959996223	0.7970153000205755	2	0	0	0	0	0	0
315.2299848999828	0.7959932000376284	2	49	547177.5492	81.25	0.5877194999484345	1	0
316.02597810002044	0.7962127999635413	1	0	0	0	0	0	0
316.8221909	0.7929512000409886	2	49	547179.3782	87.5	0.8245509000262246	2	0
317.61514210002497	0.7938558999449015	2	49	547180.299	75	0.9523894999874756	2	0
318.40899799996987	0.7954320999560878	2	49	547180.8461	93.75	0.7055939000565559	1	0
319.20443009992596	0.7933520000660792	1	49	547181.6071	93.75	0.6712237000465393	1	0
319.99778209999204	0.7931974999373779	2	49	547183.0492	25	1.3199909999966621	2	0
320.7909795999294	0.7979028000263497	2	49	547183.3993	81.25	0.8768295000772923	2	0
321.58888239995576	0.8003077000612393	2	49	547184.5734	37.5	1.2530766000272706	2	0
322.3891901	0.7947209000121802	2	49	547185.1584	62.5	1.0377439999720082	2	0
323.1839110000292	0.7977104999590665	2	49	547185.7574	87.5	0.8419730999739841	2	0
323.98162149998825	0.7951724999584258	1	0	0	0	0	0	0
324.7767939999467	0.7958025999832898	2	49	547187.2903	93.75	0.7820025000255555	2	0
325.57259659992997	0.7930320000741631	2	49	547188.1566	87.5	0.8525488000595942	2	0
326.36562860000413	0.7985444000223652	2	49	547189.191	56.25	1.0939170999918133	2	0
327.1641730000265	0.7946730999974534	2	49	547190.1352	37.5	1.2395165999187157	2	0
327.95884610002395	0.7945278999395669	2	49	547190.7438	62.5	1.0535283999051899	2	0
328.7533739999635	0.7956057999981567	2	0	0	0	0	0	0
329.54897979996167	0.7993818999966606	2	49	547192.0975	93.75	0.8170111000072211	2	0
330.34836169995833	0.7992398999631405	2	49	547192.9508	81.25	0.8709600999718532	2	0
331.1476015999215	0.7946788	2	49	547193.6276	100	0.7485037000151351	1	0
331.9422803999623	0.7934042999986559	2	49	547194.5087	87.5	0.8349719999823719	2	0
332.7356847	0.7949837000342086	1	0	0	0	0	0	0
333.5306683999952	0.8000730000203475	2	49	547196.0938	87.5	0.8316433	2	0
334.33074140001554	0.7947552999248728	2	49	547196.9657	81.25	0.9034966999897733	2	0
335.1254966999404	0.7941074999980628	2	49	547197.6241	93.75	0.7671262000221759	2	0
335.9196041999385	0.7938800000119954	2	49	547198.5648	81.25	0.9137635000515729	2	0
336.71348419995047	0.7962919999845326	2	49	547199.194	100	0.7490447000600398	1	0
337.5097762	0.7964089000597596	2	49	547200.2399	68.75	0.9986690999940038	2	0
338.30618509999476	0.8007240999722853	2	49	547200.8659	87.5	0.8282059000339359	2	0
339.10690919996705	0.7924080999800935	2	49	547201.8046	68.75	0.9662356	2	0
339.89931729994714	0.7988502000225708	2	49	547202.3661	100	0.7352998000569642	1	0
340.6981674999697	0.7995968000032008	2	49	547203.1168	93.75	0.6871922999853268	1	0
341.4977642999729	0.7942251999629661	2	49	547204.104	81.25	0.8748036000179127	2	0
342.2919894999359	0.7947734000626951	1	0	0	0	0	0	0
343.0867628999986	0.7953287999844179	2	49	547205.6652	87.5	0.8469345999183133	2	0
343.8820917	0.7998078999808058	2	49	547206.4379	87.5	0.8243465999839827	2	0
344.6818995999638	0.7928356999764219	2	49	547207.2018	93.75	0.7884126000571996	2	0
345.4747352999402	0.7966403000755236	1	49	547207.9646	100	0.7583567	1	0
346.27137560001574	0.7939112	2	49	547208.944	75	0.9411561000160873	2	0
347.0652868000325	0.7974688999820501	2	49	547209.6085	93.75	0.8117662998847663	2	0
347.86275570001453	0.7940897999797016	1	0	0	0	0	0	0
348.65684549999423	0.7980412000324577	2	49	547211.1693	93.75	0.7809576999861747	2	0
349.4548867000267	0.7943435999331996	2	49	547212.2542	56.25	1.0678561999229714	2	0
350.2492302999599	0.7945908000692725	2	0	0	0	0	0	0
351.04382110002916	0.7956665999954566	2	49	547213.4255	87.5	0.6501852	1	0
351.8394877000246	0.7939874998992309	2	49	547214.0034	62.5	0.43247129989322275	1	0
352.63347519992385	0.7970959000522271	2	49	547215.0147	87.5	0.6497594000538811	1	0
353.4305710999761	0.7950922000454739	2	49	547215.9637	93.75	0.8016158000100404	2	0
354.22566330002155	0.7922425	2	49	547217.1725	37.5	1.2153817999642342	2	0
355.01790580002125	0.7946943	2	49	547217.7087	75	0.9593329000053927	2	0
355.8126000999473	0.7950482000596821	2	49	547218.7309	43.75	1.1868560999864712	2	0
356.6076483	0.7946768999099731	1	0	0	0	0	0	0
357.40232519991696	0.7944825000595301	2	49	547220.2455	56.25	1.1116992000024766	2	0
358.1968076999765	0.7941560000181198	2	49	547221.0246	56.25	1.0963480999926105	2	0
358.9909636999946	0.7965658999746665	2	49	547221.724	68.75	1.0015509999357164	2	0
359.7875295999693	0.7953995000571012	2	0	0	0	0	0	0
360.5829291000264	0.7942354999249801	2	49	547222.8415	75	0.5271231998922303	1	0
361.37716459995136	0.7921558000380173	2	49	547223.9787	81.25	0.8700769999995828	2	0
362.1693203999894	0.7964428999694064	2	49	547224.6748	93.75	0.7739782999269664	2	0
362.9657632999588	0.7974097999976948	1	49	547225.5707	81.25	0.8734351999592036	2	0
363.7631730999565	0.7951328000053763	2	0	0	0	0	0	0
364.55830589996185	0.7995512000052258	2	49	547227.2292	75	0.9394216999644414	2	0
365.3578570999671	0.7941791999619454	2	49	547228.052	75	0.9626641999930143	2	0
366.1520363	0.7965047000907362	2	49	547228.8656	68.75	0.9821058000670746	2	0
366.94854100001976	0.7931745999958366	1	0	0	0	0	0	0
367.7417156000156	0.7906765999505296	2	49	547230.3569	81.25	0.8837259999709204	2	0
368.5323921999661	0.7926182000664994	2	49	547230.6991	62.5	0.43522830004803836	1	0
369.3250104000326	0.8003906999947503	2	49	547231.7779	100	0.7214217999717221	1	0
370.1254011000274	0.7984427999472246	2	0	0	0	0	0	0
370.9238438999746	0.7937183999456465	1	49	547233.2382	81.25	0.5829105000011623	1	0
371.71756229992025	0.7974657	2	49	547234.401	75	0.9519762001000345	2	0
372.51502799999435	0.7994132000021636	2	49	547234.7973	75	0.5508446999592707	1	0
373.3144411999965	0.7950273000169545	2	49	547235.8473	93.75	0.8013609999325126	2	0
374.10946850001346	0.7986321999924257	2	49	547237.0281	43.75	1.1872067999793217	2	0
374.9081007000059	0.7966695999493822	2	49	547237.556	81.25	0.9164354000240564	2	0
375.70477029995527	0.7946530999615788	2	49	547238.4791	62.5	1.042862500064075	2	0
376.49942339991685	0.7940077000530437	2	49	547239.3553	50	1.1244172001024708	2	0
377.2934310999699	0.7950966999633238	2	49	547239.9745	75	0.9496317	2	0
378.0885277999332	0.7951702000573277	2	49	547240.5983	93.75	0.7783363000489771	2	0
378.88369799999055	0.7998370999703184	2	49	547241.4716	87.5	0.8563838000409305	2	0
379.68353509996086	0.7936764999758452	2	49	547242.3952	68.75	0.9801864000037313	2	0
380.4772115999367	0.7980465000728145	2	49	547243.2185	68.75	1.0098551000701264	2	0
381.2752581000095	0.7923334999941289	2	49	547243.8175	93.75	0.8107499999459833	2	0
382.06759160000365	0.7967866000253707	2	49	547244.2668	62.5	0.4677697999868542	1	0
382.8643782	0.7940656999126077	2	49	547244.8924	43.75	0.29659439995884895	1	0
383.65844389994163	0.7927606	2	49	547245.6764	43.75	0.2864333000034094	1	0
384.4512044999283	0.7936736000701785	2	49	547246.9899	93.75	0.8072573	2	0
385.24487809999846	0.7966402999591082	2	49	547247.9706	68.75	0.9942884999327362	2	0
386.04151839995757	0.7967550000175834	2	49	547248.9348	50	1.161842399975285	2	0
386.83827339997515	0.7951851000543684	1	0	0	0	0	0	0
387.6334585000295	0.7985721	2	0	0	0	0	0	0
388.4320306	0.7935739998938516	2	49	547250.7926	87.5	0.6291306999046355	1	0
389.2256045999238	0.7988403000636026	2	49	547251.9154	75	0.9583605	2	0
390.02444489998743	0.7967381000053138	2	49	547252.9169	50	1.1609404999762774	2	0
390.82118299999274	0.7959452000213787	1	0	0	0	0	0	0
391.6171282000141	0.8005682999501005	2	0	0	0	0	0	0
392.4176964999642	0.7983864999841899	1	49	547254.7963	87.5	0.6470803000265732	1	0
393.2160829999484	0.7952383999945596	2	49	547256.2588	31.25	1.3112721000798047	2	0
394.0113214	0.7963775000534952	1	0	0	0	0	0	0
394.80769889999647	0.7938338000094518	2	0	0	0	0	0	0
395.6015327000059	0.7943237000145018	2	49	547258.1448	93.75	0.8118428000016138	2	0
396.3958564000204	0.7982428999384865	2	49	547259.0789	75	0.9515448999591172	2	0
397.1940992999589	0.7983364	1	0	0	0	0	0	0
397.9924357000273	0.8001209999201819	2	49	547260.7139	68.75	0.9899585999082774	2	0
398.79255669994745	0.7992615000111982	2	49	547261.2192	93.75	0.6951492000371218	1	0
399.59181819995865	0.8010405000532046	2	49	547262.1182	93.75	0.7949514000210911	2	0
400.39285870001186	0.7931931000202894	2	49	547263.2702	50	1.145899900002405	2	0
401.18605180003215	0.7925812999019399	2	49	547263.8491	75	0.9316241999622434	2	0
401.9786330999341	0.7933208000613376	2	0	0	0	0	0	0
402.7719538999954	0.7945068000117317	2	49	547265.4643	75	0.9609134	2	0
403.56646070000716	0.8002428999170661	2	0	0	0	0	0	0
404.3667035999242	0.7944654000457376	2	49	547266.8163	100	0.7181684999959543	1	0
405.16116899996996	0.7976329999510199	2	49	547267.2804	56.25	0.3877710000379011	1	0
405.958802	0.7957420001039281	2	49	547268.0506	50	0.3603123	1	0
406.7545440000249	0.7952046999707818	2	49	547269.1324	87.5	0.6463665999472141	1	0
407.5497486999957	0.7923877999419346	2	0	0	0	0	0	0
408.3421364999376	0.7945478000910953	2	49	547270.8107	100	0.7371141000185162	1	0
409.1366843000287	0.7977379999356344	2	49	547271.847	68.75	0.9787935999920592	2	0
409.93442229996435	0.7940461999969557	2	49	547272.8695	43.75	1.203625199967064	2	0
410.7284684999613	0.7938942000037059	2	0	0	0	0	0	0
411.5223627	0.7930879	2	49	547274.0407	93.75	0.7868728999746963	2	0
412.31545059999917	0.7939630999462679	2	49	547274.8345	93.75	0.7876159999286756	2	0
413.10941369994543	0.7956834000069648	2	49	547275.4946	87.5	0.6537505000596866	1	0
413.9050970999524	0.7962537000421435	2	49	547276.4835	87.5	0.8469738999847323	2	0
414.70135079999454	0.7994263999862596	2	49	547277.3606	75	0.9277927000075579	2	0
415.5007771999808	0.7944654000457376	1	0	0	0	0	0	0
416.29524260002654	0.7956581999314949	2	49	547279.1258	56.25	1.0991173998918384	2	0
417.09090079995804	0.7931689000688493	2	49	547279.7676	75	0.9451825000578538	2	0
417.8840697000269	0.7947524999035522	1	49	547280.6	68.75	0.9844951999839395	2	0
418.67882219993044	0.7963598	2	0	0	0	0	0	0
419.47518199996557	0.7930327999638394	2	49	547281.7397	75	0.5330018999520689	1	0
420.2682147999294	0.7999511000234634	1	0	0	0	0	0	0
421.0681658999529	0.7991225000005215	1	0	0	0	0	0	0
421.8672883999534	0.8007797000464052	1	0	0	0	0	0	0
422.6680680999998	0.7992811999283731	2	49	547285.2689	87.5	0.8693415999878198	2	0
423.4673492999282	0.8012933	1	49	547286.0675	87.5	0.8686503000790253	2	0
424.26864259992726	0.7931034000357613	2	49	547287.0306	62.5	1.0305102000711486	2	0
425.061746	0.792217	1	49	547287.5261	100	0.7329025999642909	1	0
425.8539630000014	0.7983541999710724	2	49	547288.3849	93.75	0.7995059000095353	2	0
426.65231719997246	0.7950460000429302	2	49	547289.3423	75	0.9584773000096902	2	0
427.4473632000154	0.7962364999111742	2	49	547289.9738	93.75	0.7950005999300629	2	0
428.24359969992656	0.7928810000885278	2	49	547290.8741	81.25	0.8989951000548899	2	0
429.0364807000151	0.7942282999865711	2	49	547291.7761	68.75	1.0081428999546915	2	0
429.83070900000166	0.7960488	2	49	547292.4984	75	0.9362143999896944	2	0
430.6267578	0.7923879999434575	2	49	547293.3822	62.5	1.0239530999679118	2	0
431.41914579994045	0.7963848999934271	2	49	547294.0804	75	0.9298005000455305	2	0
432.2155306999339	0.7941599000478163	2	49	547294.8783	75	0.9312564000720158	2	0
433.0096905999817	0.7995450999587774	2	0	0	0	0	0	0
433.8092356999405	0.7937810000730678	1	0	0	0	0	0	0
434.60301670001354	0.7950705999974161	2	49	547297.0964	100	0.7618814000161365	1	0
435.39808730001096	0.7969321999698877	2	0	0	0	0	0	0
436.19501949998084	0.7957464000210166	2	49	547299.0326	56.25	1.1061442999634892	2	0
436.99076590000186	0.7965606999350712	2	49	547299.5614	87.5	0.8391941000008956	2	0
437.78732659993693	0.7926077999873087	2	49	547300.2495	100	0.7307103000348434	1	0
438.57993439992424	0.7976570000173524	1	0	0	0	0	0	0
439.3775913999416	0.7977818000363186	2	49	547301.9608	87.5	0.8517403000732884	2	0
440.1753731999779	0.7934627	2	49	547302.7314	87.5	0.8245893999701366	2	0
440.9688358999556	0.8005474000237882	2	49	547303.62	81.25	0.9196719999890774	2	0
441.7693832999794	0.7947523000184447	2	49	547304.6979	43.75	1.1970208999700844	2	0
442.5641355999978	0.7973282999591902	1	49	547305.1746	81.25	0.8790077000157908	2	0
443.3614639	0.7946115999948233	2	0	0	0	0	0	0
444.15607549995184	0.7968406999716535	2	49	547306.6898	93.75	0.8022376999724656	2	0
444.9529161999235	0.7985947000561282	2	49	547307.6376	75	0.9532487000105903	2	0
445.7515108999796	0.7981300000101328	2	49	547308.5328	62.5	1.0497946999967098	2	0
446.54964089998975	0.7945526000112295	2	49	547309.2478	68.75	0.9667204000288621	2	0
447.3441935	0.7948990999720991	1	0	0	0	0	0	0
448.1390925999731	0.7944267999846488	2	49	547310.5109	87.5	0.6403755999635905	1	0
448.93351939995773	0.7947693000314757	2	0	0	0	0	0	0
449.7282886999892	0.7960961000062525	2	49	547312.1568	93.75	0.6970611000433564	1	0
450.52438479999546	0.7973075000336394	2	49	547313.0827	87.5	0.8268109000055119	2	0
451.3216923000291	0.7956318999640644	2	49	547314.0679	62.5	1.0147525999927893	2	0
452.11732419999316	0.7944806999294087	2	49	547314.801	75	0.9521769999992102	2	0
452.9118048999226	0.7959746000124142	2	49	547315.609	68.75	0.9657403000164777	2	0
453.7077795	0.7951737000839785	2	0	0	0	0	0	0
454.50295320001896	0.8000667999731377	2	49	547316.9951	100	0.7606314999284223	1	0
455.3030199999921	0.7932634999742731	2	49	547318.1871	50	1.1525997000280768	2	0
456.0962834999664	0.7989998999983072	1	49	547318.5789	100	0.7511755999876186	1	0
456.8952833999647	0.7995935999788344	2	49	547319.6081	68.75	0.9813133	2	0
457.6948769999435	0.7921419000485912	2	49	547320.7365	31.25	1.3101095000747591	2	0
458.4870188999921	0.7981303000124171	1	0	0	0	0	0	0
459.2851492000045	0.7942270999774337	2	49	547322.1102	56.25	1.0936024999246001	2	0
460.07937629998196	0.7922622000332922	2	0	0	0	0	0	0
460.87163850001525	0.7954607999417931	2	49	547323.3724	93.75	0.7692842999240384	2	0
461.66709929995704	0.7946458000224084	2	49	547324.1995	93.75	0.8009008000371978	2	0
462.46174509997945	0.7939264	2	0	0	0	0	0	0
463.2556714999955	0.7977238	2	49	547325.4631	68.75	0.4759916999610141	1	0
464.05339529993944	0.7996217000763863	2	49	547326.1095	50	0.3246100000105798	1	0
464.8530170000158	0.7976663999725133	2	49	547327.5463	75	0.9618006999371573	2	0
465.65068339998834	0.7944075999548659	2	49	547328.2731	81.25	0.8908944999566302	2	0
466.4450909999432	0.8003255	2	49	547329.2492	56.25	1.0726185999810696	2	0
467.24541650002357	0.7964403999503702	2	49	547329.9514	68.75	0.9745343999238685	2	0
468.04185689997394	0.7937933000503108	2	0	0	0	0	0	0
468.83565020002425	0.7950714000035077	2	49	547331.1395	81.25	0.5723493	1	0
469.63072160002775	0.7945428999373689	2	49	547332.3344	68.75	0.9722152999602258	2	0
470.4252644999651	0.7946463000262156	2	49	547333.1965	62.5	1.039793899981305	2	0
471.21991079999134	0.7915706	2	49	547333.6376	93.75	0.6862072	1	0
472.01148139999714	0.7955721999751404	2	0	0	0	0	0	0
472.8070535999723	0.7971916999667883	2	49	547334.9786	62.5	0.4400766999460757	1	0
473.60424529993907	0.7969338999828324	2	49	547336.1785	87.5	0.8428091000532731	2	0
474.4011791999219	0.7966442001052201	2	49	547337.2019	56.25	1.0692435000091791	2	0
475.1978234000271	0.7963764999294654	1	0	0	0	0	0	0
475.9941998999566	0.7956007999600843	2	49	547338.5467	87.5	0.8209983999840915	2	0
476.78980069991667	0.7973119000671431	1	0	0	0	0	0	0
477.5871125999838	0.7935548	2	49	547339.6623	50	0.3436808999394998	1	0
478.3806673999643	0.7953184000216424	2	0	0	0	0	0	0
479.17598579998594	0.7946033	2	49	547341.4838	81.25	0.5763503	1	0
479.97058909991756	0.7991683000000194	2	49	547342.6788	68.75	0.9767655	2	0
480.7697573999176	0.7937126000178978	2	49	547343.6341	50	1.1328439000062644	2	0
481.5634699999355	0.7950510000810027	2	49	547344.1399	87.5	0.8449814000632614	2	0
482.3585210000165	0.7941141999326646	2	49	547345.0619	68.75	0.9718683	2	0
483.15263519994915	0.7937040000688285	1	0	0	0	0	0	0
483.9463392	0.7953706999542192	2	49	547346.6551	68.75	0.9772638999857008	2	0
484.7417098999722	0.7945269000483677	1	0	0	0	0	0	0
485.53623680002056	0.7951157999923453	1	0	0	0	0	0	0
486.3313526000129	0.7953411999624223	1	0	0	0	0	0	0
487.1266937999753	0.7949616999831051	2	49	547349.6197	100	0.7615573999937624	1	0
487.92165549995843	0.7964288999792188	2	49	547350.418	100	0.7648469000123441	1	0
488.71808439993765	0.7947280000662431	2	49	547351.3192	81.25	0.8696814000140876	2	0
489.5128124000039	0.7953729999717325	1	0	0	0	0	0	0
490.3081853999756	0.7952856000047177	2	49	547352.9064	81.25	0.8667271999875084	2	0
491.10347099998035	0.7942464000079781	2	49	547353.6723	87.5	0.8373652000445873	2	0
491.8977173999883	0.7950639999471605	2	49	547354.6253	68.75	0.9960791999474168	2	0
492.6927813999355	0.7939255000092089	2	0	0	0	0	0	0
493.4867068999447	0.7959059000713751	2	49	547356.0903	81.25	0.8721454000333324	2	0
494.28261280001607	0.7969524000072852	2	49	547357.0245	68.75	1.0103669000091031	2	0
495.07956520002335	0.7993091999087483	2	49	547357.4614	87.5	0.6503287999657914	1	0
495.8788743999321	0.7944536000723019	2	49	547358.5574	75	0.9470770000480115	2	0
496.6733280000044	0.7926120000192896	2	49	547359.3419	75	0.9370559999952093	2	0
497.4659400000237	0.7963212999748066	2	49	547360.2541	62.5	1.0567299999529496	2	0
498.2622612999985	0.7958298999583349	1	0	0	0	0	0	0
499.05809119995683	0.7946017000358552	2	49	547361.5723	93.75	0.7827766999835148	2	0
499.8526928999927	0.7939850999973714	2	49	547362.3906	93.75	0.8063867000164464	2	0
500.64667799999006	0.7957209999440238	2	49	547363.4649	56.25	1.0867528000380844	2	0
501.4423989999341	0.7944547000806779	2	49	547364.3505	43.75	1.1766085	2	0
502.23685370001476	0.8019262999296188	2	49	547365.0804	56.25	1.112054399913177	2	0
503.0387799999444	0.7943807999836281	1	0	0	0	0	0	0
503.8331608	0.7962177000008523	1	0	0	0	0	0	0
504.62937849992886	n/a	0	0	0	0	0	0	0