onset	duration	offset	trial	item	RT	response
51.525600000000004	7.011487600000692	58.537087600000696	1	att	3.0820318999904	4.0
58.538035500000696	4.915055599995	63.453091099995696	1	past	2.60177599999588	1.0
63.4537348999939	5.5993457000003986	69.0530805999943	1	fut	1.60664929999621	1.0
69.05382519998881	4.693849900009795	73.7476750999986	1	self	1.5719761000073	4.0
73.74840699999831	4.750511799997199	78.49891879999551	1	ppl	2.30908340000315	1.0
78.49968200000069	2.601091499993302	81.10077349999399	1	arou	1.6574827000004	6.0
81.10176419999979	4.084083499998002	85.1858476999978	1	aff	2.63679599999159	3.0
85.1865439000018	3.7027461999969944	88.88929009999879	1	eng	1.94049349999113	1.0
88.8902700999958	3.3273232999929974	92.2175933999888	1	mvmt	1.45465309999418	3.0
92.2184377000008	2.081432399994	94.2998700999948	1	delib	0.890990399988368	7.0
94.30056799999781	6.6163200000009965	100.9168879999988	1	image	1.48280270000396	1.0
100.91769559999281	2.5432046000059927	103.4609001999988	1	ling	1.02941070000816	9.0
103.46214919999281	3.6368542999990012	107.09900349999181	1	conf	1.93249210000795	9.0
155.9673755999898	8.400263000003008	164.3676385999928	2	att	4.02333260000159	7.0
164.3683391000008	2.7277282999999954	167.0960674000008	2	past	1.27687139999762	1.0
167.0968788999958	2.3807671999960007	169.4776460999918	2	fut	0.904599600005895	1.0
169.4784938000008	4.305258199994	173.7837519999948	2	self	1.34808009999688	2.0
173.78482339998982	2.6773964000019816	176.4622197999918	2	ppl	1.0853771000111	1.0
176.4631180999928	6.955222899995988	183.4183409999888	2	arou	1.21172950000619	5.0
183.4190031999958	6.887768100001978	190.3067712999978	2	aff	1.9711043999996	5.0
190.3076480999948	4.486856500007008	194.7945046000018	2	eng	3.24333670000487	2.0
194.79539189999082	3.9845416000029843	198.7799334999938	2	mvmt	1.82302070000151	2.0
198.7808835999958	3.2284402999939914	202.0093238999898	2	delib	1.08067870000377	7.0
202.0104917999918	4.343794800006009	206.3542865999978	2	image	2.7887056000036	1.0
206.3549892999938	2.114270400007996	208.4692597000018	2	ling	0.709014699998079	9.0
208.4700755000008	2.9880605999929912	211.4581360999938	2	conf	1.31668319999881	8.0
265.36874039999975	5.042943900000012	270.41168429999976	3	att	2.27385009999853	1.0
270.4126233999918	4.179760600002965	274.59238399999475	3	past	2.40691930000321	1.0
274.5937345999908	1.944560400006992	276.5382949999978	3	fut	0.591773600011948	1.0
276.5389617999968	4.7484358999929555	281.28739769998975	3	self	2.71703390000039	8.0
281.28812509999875	2.987610999990011	284.27573609998876	3	ppl	1.5319346000033	1.0
284.27639879999975	3.3469505999960347	287.6233493999958	3	arou	1.60171259999333	8.0
287.62408570000076	1.972430699998995	289.59651639999976	3	aff	0.678210199999739	3.0
289.5973473999978	4.034797500004004	293.6321449000018	3	eng	1.38798949999909	1.0
293.6331218999908	3.1285044000100015	296.7616263000008	3	mvmt	1.09238050000567	3.0
296.76264579999275	5.107319800009009	301.86996560000176	3	delib	1.31737669999711	3.0
301.87073129999675	2.945612199997015	304.81634349999376	3	image	1.14781490000314	3.0
304.81731809999377	3.6965538000080187	308.5138719000018	3	ling	1.15916660000221	8.0
308.5145469999908	4.8316509	313.3461978999908	3	conf	1.35648290000972	7.0
373.17525419999475	4.517374799994002	377.69262899998876	4	att	3.11993810000422	8.0
377.6926449999948	3.921941000007962	381.61458600000276	4	past	1.80694880000374	2.0
381.6146223999888	1.719700100002001	383.3343224999908	4	fut	0.618019500005175	2.0
383.3343437999928	2.6516439999979866	385.98598779999077	4	self	1.25702839999576	5.0
385.98600369999576	6.09151379999804	392.0775174999938	4	ppl	1.49835779999557	7.0
392.07753349999876	3.3056755000000067	395.38320899999877	4	arou	1.87019669999427	5.0
395.38323699999376	3.3645731000000296	398.7478100999938	4	aff	1.18278089999512	7.0
398.7478453999998	2.495799800002999	401.2436452000028	4	eng	1.14374319999479	1.0
401.2436635999978	3.3905956999950035	404.6342592999928	4	mvmt	1.11888249999902	7.0
404.6342797999888	5.351815300003977	409.9860950999928	4	delib	1.13335200000438	1.0
409.98611449999476	3.3626941999980318	413.3488086999928	4	image	1.24216759999399	8.0
413.34882459999676	2.619369499996992	415.96819409999375	4	ling	0.900361499996507	9.0
415.9682151999938	5.043969000005973	421.01218419999975	4	conf	2.1247660999943	8.0
482.87670200000076	4.997661100002006	487.87436310000277	5	att	2.91128699999535	8.0
487.8743804999898	5.3412520999989965	493.2156325999888	5	past	2.94275220000418	1.0
493.2156632999898	2.5033581000019467	495.71902139999173	5	fut	0.906927100004395	1.0
495.71904129999774	3.547194500003002	499.26623580000074	5	self	2.16938920000393	1.0
499.2662609000028	3.155292999989001	502.4215538999918	5	ppl	1.23317169999063	9.0
502.4216012000027	3.9161953000000267	506.33779650000275	5	arou	1.60942249999789	7.0
506.33782409999475	6.918465199997058	513.2562892999917	5	aff	2.45229030000337	7.0
513.2563071999969	3.594715200001019	516.8510223999979	5	eng	1.99727459999849	1.0
516.8510379999998	4.372930700003053	521.2239687000028	5	mvmt	1.3677394999977	3.0
521.2240048000018	5.334428899994009	526.5584336999958	5	delib	0.918961299990769	2.0
526.5584531999988	3.088238600001091	529.6466917999999	5	image	1.75251730000309	8.0
529.6467108999998	2.06421399999806	531.7109248999978	5	ling	0.459634699989692	9.0
531.7109445000018	5.00874739998801	536.7196918999898	5	conf	1.12447169999359	8.0
596.5828328999988	3.573166899994021	600.1559997999929	6	att	2.27021529999911	3.0
600.1560215999988	3.0688774000010426	603.2248989999998	6	past	1.83418379999057	1.0
603.2249198999988	3.5680116000000908	606.7929314999989	6	fut	0.387618299995665	6.0
606.7929505999988	1.5293719000040937	608.3223225000029	6	self	0.982393999991473	5.0
608.3223410999989	5.853467099994987	614.1758081999939	6	ppl	3.55806549999397	1.0
614.1758279999989	6.839827399991918	621.0156553999908	6	arou	4.51462109999557	7.0
621.0156747999928	2.2450989000060417	623.2607736999988	6	aff	0.656678200000897	3.0
623.2607927999989	3.1151928000040243	626.3759856000029	6	eng	1.38454539999657	1.0
626.3760136999979	4.882138599990981	631.2581522999889	6	mvmt	1.61601660000451	3.0
631.2581695999899	2.3244489000060184	633.5826184999959	6	delib	0.935764900001232	3.0
633.5826371999929	3.175009800005	636.7576469999979	6	image	0.971662500000093	1.0
636.7576681999989	2.1507297999929733	638.9083979999918	6	ling	0.586957499996061	9.0
638.9084171999918	6.932707900007017	645.8411250999989	6	conf	1.05717379999987	5.0
