onset	duration	offset	trial	item	RT	response
58.526799999999994	4.147552400012501	62.674352400012495	1	att	1.95555459999014	9.0
62.675652800019094	3.971729799988708	66.6473826000078	1	past	1.76731589995325	9.0
66.6486743000645	3.5931758999359005	70.2418502000004	1	fut	0.83510559995193	1.0
70.2440414000379	6.621342799975494	76.8653842000134	1	self	1.8212394999573	9.0
76.8666392000236	2.5688087999587026	79.4354479999823	1	ppl	0.634566099965014	9.0
79.4367122000625	3.1258313999278897	82.56254359999039	1	arou	1.94468139996752	7.0
82.56369149999989	2.9600809999976008	85.52377249999749	1	aff	0.958890600013547	9.0
85.5252068999765	6.042935800039999	91.5681427000165	1	eng	2.7518569000531	1.0
91.5696944000745	4.755547699984007	96.3252421000585	1	mvmt	1.30478060001042	7.0
96.3263814000025	4.874261999967999	101.2006433999705	1	delib	2.05634690006264	9.0
101.2033068999955	3.1719580000499974	104.3752649000455	1	image	1.34519680007361	7.0
104.37689020008149	3.3315278999510127	107.7084181000325	1	ling	0.889249799889512	8.0
107.7099642000475	2.9580454999809973	110.66800970002849	1	conf	1.18418049998581	9.0
166.54523230007248	4.106852199998002	170.6520845000705	2	att	1.95520829991437	9.0
170.6532764000665	3.4434219999239986	174.0966983999905	2	past	1.52693059993908	1.0
174.0980384000655	2.827987500001001	176.9260259000665	2	fut	0.822901999927126	9.0
176.9271768999825	3.345009400044006	180.2721863000265	2	self	1.5145032000728	9.0
180.2733227000645	2.961724399938987	183.2350471000035	2	ppl	0.813512399909087	1.0
183.2360409000035	4.03054319997301	187.2665840999765	2	arou	2.35880679998081	7.0
187.26765830000647	2.491827300052023	189.7594856000585	2	aff	1.4987012000056	5.0
189.7606533999865	4.622100800043	194.3827542000295	2	eng	1.5922947000945	2.0
194.3839034000485	2.8328526000260013	197.2167560000745	2	mvmt	1.08128139993642	9.0
197.2187389000395	7.847183699952012	205.06592259999152	2	delib	1.93370669998694	9.0
205.06723430008452	3.5647426999640004	208.63197700004852	2	image	1.74507649999578	1.0
208.63300020003948	2.171254799934019	210.8042549999735	2	ling	0.540613299934193	9.0
210.80533950008248	2.710777699948011	213.5161172000305	2	conf	0.922176199965179	8.0
262.35033100006046	3.9853163999500225	266.3356474000105	3	att	1.72675739997067	9.0
266.33665990003647	3.082502800040004	269.41916270007647	3	past	1.15400580002461	1.0
269.4205703000845	2.4163022999420036	271.8368726000265	3	fut	0.600260999985039	9.0
271.8383609000665	2.4034857999070027	274.2418466999735	3	self	0.833496599923819	9.0
274.2430083999715	2.2806292000460076	276.5236376000175	3	ppl	0.680087900022045	1.0
276.5247013000845	3.871097399969983	280.39579870005446	3	arou	1.5739842999028	7.0
280.3968317000035	2.0284914000660024	282.4253231000695	3	aff	1.2142227999866	5.0
282.42635400000347	3.0027262000360224	285.4290802000395	3	eng	1.23080060002394	1.0
285.4301023000225	2.5056159000379807	287.9357182000605	3	mvmt	0.737623400054872	9.0
287.9369073000345	2.8014841999400346	290.7383914999745	3	delib	1.34881410002708	7.0
290.7397554999995	2.8867532999719856	293.6265087999715	3	image	1.11380849999841	1.0
293.6272993000535	2.3449713999870028	295.9722707000405	3	ling	0.554621999966912	9.0
295.9731781000815	4.898715199901972	300.87189329998347	3	conf	1.51904929999728	9.0
356.7563609000135	7.345919899991998	364.1022808000055	4	att	3.94702249998227	2.0
364.1023014000465	3.108700599987003	367.2110020000335	4	past	1.30190630001016	1.0
367.2110161000245	2.1570836000610143	369.3680997000855	4	fut	0.46575049997773	1.0
369.36811829999345	3.116326200078049	372.4844445000715	4	self	1.3452174999984	1.0
372.4844674000125	2.401195400045026	374.8856628000575	4	ppl	0.716051100054756	1.0
374.8856820999725	6.231866500107003	381.1175486000795	4	arou	3.55507310002577	1.0
381.1175672999895	2.3133688999799915	383.4309361999695	4	aff	1.26206850004382	5.0
383.4309571000125	4.711253499961003	388.1422105999735	4	eng	1.70636810001452	1.0
388.1422323000225	3.585724600008973	391.7279569000315	4	mvmt	1.84612770006061	9.0
391.72797350004146	3.0501347000240457	394.7781082000655	4	delib	1.31524799996987	1.0
394.7781291999935	2.8339864000440116	397.6121156000375	4	image	1.33471239998471	1.0
397.6121362000785	8.219049899954996	405.8311861000335	4	ling	2.79407429997809	1.0
405.8312046000575	4.761723799979961	410.59292840003747	4	conf	1.0436892999569	6.0
461.4662886000085	5.356968400067956	466.82325700007647	5	att	3.36929619999137	9.0
466.8232754999845	5.732963300077984	472.5562388000625	5	past	1.07404020009562	9.0
472.55626170000346	2.8117252000380404	475.3679869000415	5	fut	0.855984900030307	1.0
475.3680036000515	3.807193999993956	479.17519760004546	5	self	2.51078529993538	3.0
479.17521270004346	2.8992225000410485	482.0744352000845	5	ppl	0.766198699944653	9.0
482.0744532999895	4.4581549999999766	486.5326082999895	5	arou	3.02399670006707	4.0
486.5326374999785	4.118672800018032	490.6513102999965	5	aff	1.21125340007711	9.0
490.65133520006947	5.001758600003029	495.6530938000725	5	eng	1.10170319990721	4.0
495.6531110999715	2.7704349000709954	498.4235460000425	5	mvmt	0.883026200113818	9.0
498.4235667000835	3.147327799931986	501.57089450001547	5	delib	1.45196879992727	1.0
501.5709168000685	3.506102599901965	505.0770193999705	5	image	1.19716189999599	1.0
505.0770413000215	2.611195200006023	507.68823650002753	5	ling	0.778308299952187	9.0
507.68825620006146	4.38752069999498	512.0757769000564	5	conf	2.02981849992648	7.0
564.9680548000695	3.8349463999030604	568.8030011999725	6	att	2.03715459990781	9.0
568.8030212000085	3.3442959999670165	572.1473171999755	6	past	1.37868490000255	1.0
572.1473348999934	2.8591440999880433	575.0064789999815	6	fut	0.742606200044975	1.0
575.0064964999984	2.76844989997403	577.7749463999725	6	self	0.997014800086617	9.0
577.7749642999914	2.3175421000930783	580.0925064000845	6	ppl	0.704202600056306	1.0
580.0925258999995	3.7353001000600443	583.8278260000595	6	arou	1.81354880006984	6.0
583.8278431000725	2.2333471999739913	586.0611903000465	6	aff	1.0070957998978	5.0
586.0612102000815	3.228272699984018	589.2894829000655	6	eng	0.99425629992038	3.0
589.2895008999695	4.208371100015938	593.4978719999855	6	mvmt	0.95264960010536	2.0
593.4978908000124	2.884205700015059	596.3820965000275	6	delib	0.971582800033502	9.0
596.3821170000665	2.8472904999509865	599.2294075000175	6	image	1.25213959999382	1.0
599.2294286000615	2.378043800011028	601.6074724000725	6	ling	0.399430899997242	9.0
601.6074920999895	4.937098700086949	606.5445908000764	6	conf	1.16416460007895	8.0
