onset	duration	cue	constant1	timestamp	stimulus_coherence	response_time	response	constant2
28.41626290484146	0.7984956000000238	2	49	5360.548779	87.5	0.8477517999999691	2	0
29.214758504841484	0.8004349000002549	2	49	5361.222943	100	0.7234203	1	0
30.01519340484174	0.7993531	2	49	5361.983799	93.75	0.6838418999996065	1	0
30.81454650484102	0.7978080000002592	2	49	5362.82373	100	0.7244196000001466	1	0
31.612354504841278	0.7989360000001398	2	49	5363.660876	100	0.7637573000001794	1	0
32.41129050484142	0.7980669	2	49	5364.453016	100	0.7569611999997505	1	0
33.209357404841285	0.7991158000004361	2	49	5365.307756	93.75	0.8136341999997967	2	0
34.00847320484172	0.7994536999995034	2	49	5365.980861	93.75	0.6876234999999724	1	0
34.807926904841224	0.7980763000005027	1	49	5366.768765	93.75	0.6760737000004156	1	0
35.60600320484173	0.7982458999995288	2	49	5367.611985	100	0.7212179999996806	1	0
36.404249104841256	0.7975208	2	49	5368.412134	100	0.7231206000005841	1	0
37.20176990484106	0.8002541000005294	2	49	5369.28598	93.75	0.7994464000003063	2	0
38.00202400484159	0.7986039999996137	2	49	5370.099247	93.75	0.8124589999997625	2	0
38.800628	0.7996754	2	49	5370.874791	93.75	0.7893991000000824	2	0
39.600303404841725	0.7986526999993657	2	49	5371.725219	87.5	0.8401512999998886	2	0
40.39895610484109	0.7982889000004434	1	49	5372.833177	50	1.1494568000007348	2	0
41.197245004841534	0.8005725000002712	2	49	5373.469044	68.75	0.9870346	2	0
41.997817504841805	0.7988619999996445	2	49	5374.10135	93.75	0.8187686999999642	2	0
42.79667950484145	0.7994732999995904	2	49	5374.842835	100	0.7613917999997284	1	0
43.59615280484104	0.7992687	2	49	5375.650787	100	0.7698696000006748	1	0
44.39542150484158	0.7993704999998954	2	49	5376.514311	87.5	0.8341252000000168	2	0
45.194792004841474	0.7996285999997781	2	49	5377.269876	93.75	0.7903194999998959	2	0
45.99442060484125	0.7991581000005681	1	49	5378.092399	93.75	0.8132144000001063	2	0
46.79357870484182	0.7984840999997687	1	0	0	0	0	0	0
47.59206280484159	0.8230050000001938	2	49	5379.616222	93.75	0.7393950999994559	1	0
48.41506780484178	0.7973917999997866	2	49	5380.496434	93.75	0.7966019999994387	2	0
49.21245960484157	0.7993293999998059	1	0	0	0	0	0	0
50.011789004841376	0.7985153999998147	2	49	5381.935777	87.5	0.6392235000002984	1	0
50.81030440484119	0.7987849000001006	2	49	5382.805798	93.75	0.7107293999997637	1	0
51.60908930484129	0.8000202000002901	2	49	5383.65076	100	0.7569062000002305	1	0
52.40910950484158	0.8013531999995394	2	49	5384.421621	100	0.7277469999999084	1	0
53.21046270484112	0.7996206000007078	2	49	5385.32792	87.5	0.8326935000004596	2	0
54.01008330484183	0.7991264999991472	2	49	5385.999581	93.75	0.7047334999997474	1	0
54.809209804840975	0.8003422000001592	2	49	5386.806794	93.75	0.7128196	1	0
55.609552004841134	0.7987774000002901	1	49	5387.66755	93.75	0.7732343000006949	2	0
56.408329404841425	0.7982665999998062	2	49	5388.478187	93.75	0.7850932000001194	2	0
57.20659600484123	0.8006779	2	49	5389.263705	93.75	0.7723445000001448	2	0
58.007273904840986	0.7996299	2	49	5390.04185	100	0.7498117	1	0
58.80690380484157	0.7997091999995973	2	49	5390.868582	93.75	0.7769135999997161	2	0
59.606613004841165	0.7980019000005996	2	49	5391.727309	87.5	0.8359321	2	0
60.404614904841765	0.7979955	2	49	5392.471821	93.75	0.7824418000000151	2	0
61.202610404841835	0.7998238999998648	2	49	5393.337232	87.5	0.8498574999994162	2	0
62.0024343	0.7989610999993602	2	49	5394.018784	100	0.7315856999994139	1	0
62.80139540484106	0.7978266000000076	2	0	0	0	0	0	0
63.59922200484107	0.7988478	2	49	5395.415813	75	0.5318272000004072	1	0
64.39806980484173	0.8008571000000302	2	49	5396.329004	87.5	0.6461702999995396	1	0
65.19892690484176	0.7984833000000435	2	49	5397.121088	87.5	0.6373974	1	0
65.9974102	0.8004431999997905	2	49	5398.098946	93.75	0.8167717999995148	2	0
66.79785340484159	0.7982717999993838	2	49	5398.845946	100	0.7633282999995572	1	0
67.59612520484097	0.8004804000001968	2	49	5399.52901	87.5	0.6481210000001738	1	0
68.39660560484117	0.7996800000000803	2	49	5400.40802	100	0.7266501	1	0
69.19628560484125	0.7979365999999573	2	49	5401.19108	93.75	0.7100299000003361	1	0
69.99422220484121	0.8003588	2	49	5401.999986	93.75	0.7209996000001411	1	0
70.79458100484135	0.7994349000000511	2	49	5402.819694	100	0.7403487000001405	1	0
71.5940159	0.7986327	1	0	0	0	0	0	0
72.39264860484127	0.8010177000005569	2	49	5404.335339	87.5	0.6579266999997344	1	0
73.19366630484183	0.8010689999991882	1	49	5405.44035	75	0.9619190999992497	2	0
73.99473530484102	0.7990294000001086	2	49	5406.174663	81.25	0.8951638000007733	2	0
74.79376470484112	0.7981761000000915	2	49	5406.952359	81.25	0.8738306000004741	2	0
75.59194080484122	0.7993069000003743	2	49	5407.684491	93.75	0.8077861000001576	2	0
76.39124770484159	0.8003419999995458	2	49	5408.454273	93.75	0.7782607999997708	2	0
77.19158970484114	0.7982056999999259	2	49	5409.217322	100	0.7409678000003623	1	0
77.98979540484106	0.7991663000002518	2	49	5410.14937	81.25	0.8748106000002736	2	0
78.78896170484131	0.7971864999999525	1	49	5410.886479	93.75	0.8127528000004531	2	0
79.58614820484127	0.7990064000005077	2	49	5412.04277	43.75	1.1718579	2	0
80.38515460484177	0.7995570999992196	1	49	5412.654512	68.75	0.9845928999993703	2	0
81.18471170484099	0.7999379000002591	2	49	5413.48179	68.75	1.012314200000219	2	0
81.98464960484125	0.7966688000005888	2	49	5414.064715	93.75	0.7953016000001298	2	0
82.78131840484184	0.7977989999999409	2	49	5414.775457	93.75	0.7093745	1	0
83.57911740484178	0.8003994999999122	2	49	5415.612981	100	0.7490993999999773	1	0
84.3795169	0.8009586999996827	2	49	5416.433506	100	0.7692244999998366	1	0
85.18047560484138	0.7993093000004592	1	0	0	0	0	0	0
85.97978490484184	0.7991495999995095	2	49	5417.9602	93.75	0.6956512999995539	1	0
86.77893450484135	0.7997705	2	49	5418.786397	93.75	0.7226988000002166	1	0
87.57870500484114	0.7985021000004053	2	49	5419.674869	93.75	0.8113996000001862	2	0
88.37720710484155	0.8009486999999353	2	49	5420.501801	87.5	0.8398295999995753	2	0
89.17815580484148	0.7978249999996478	2	49	5421.223342	100	0.7604220000002897	1	0
89.97598080484113	0.8007431000005454	2	49	5421.997332	100	0.736587	1	0
90.77672390484167	0.7999284999996235	2	49	5422.834059	93.75	0.7725713999998334	2	0
91.5766524	0.7988529000003837	2	49	5423.658768	93.75	0.7973516000001837	2	0
92.37550530484168	0.7987987999995312	2	49	5424.606854	75	0.9465849999996863	2	0
93.17430410484121	0.7991570000003776	2	49	5425.469518	68.75	1.0104499999997643	2	0
93.97346110484159	0.7997731999994357	2	49	5426.124809	87.5	0.8665833999993993	2	0
94.77323430484103	0.7992749000004551	2	49	5426.76006	93.75	0.7020617000007405	1	0
95.57250920484148	0.7998051	2	49	5427.55369	93.75	0.6964166999996451	1	0
96.37231430484098	0.7972612	2	49	5428.466075	93.75	0.8089969000002384	2	0
97.1695755	0.7996838999997635	2	49	5429.246989	93.75	0.7926489000001311	2	0
97.96925940484107	0.7987003000007462	2	49	5430.015299	100	0.7612756000007721	1	0
98.76795970484181	0.7969933999993373	2	49	5430.85001	93.75	0.7972858999992241	2	0
99.56495310484115	0.7993032	2	49	5431.754249	81.25	0.9045313	2	0
100.36425630484155	0.7994125999994139	1	0	0	0	0	0	0
101.16366890484096	0.7976932999999917	2	49	5433.236336	93.75	0.7879029000005175	2	0
101.96136220484095	0.7992522000004101	2	49	5434.100417	87.5	0.8542905000003884	2	0
102.76061440484136	0.8001462000001993	2	49	5435.057949	68.75	1.0125706	2	0
103.56076060484156	0.7992145999996865	2	49	5435.731812	81.25	0.8862874999995256	2	0
104.35997520484125	0.7996677	2	49	5436.435111	93.75	0.7903714000003674	2	0
105.15964290484135	0.7998434000000998	2	49	5437.210263	100	0.7658564000003025	1	0
105.95948630484145	0.7994270999997752	2	49	5438.133314	81.25	0.8890632	2	0
106.75891340484122	0.7997358	2	49	5438.774421	100	0.7307434000003923	1	0
107.55864920484146	0.7998109000000113	2	49	5439.676845	87.5	0.8334316000000399	2	0
108.35846010484147	0.7994335000003048	2	49	5440.503254	87.5	0.8600294	2	0
109.15789360484177	0.7993079999996553	2	49	5441.210416	100	0.7677586999998312	1	0
109.95720160484143	0.8004404000002978	2	49	5442.128497	81.25	0.8865316000001258	2	0
110.75764200484173	0.7982386999992741	2	49	5442.8366	93.75	0.7941936	2	0
111.5558807	0.7993961000001946	2	49	5443.580587	100	0.7399420000001555	1	0
112.3552768048412	0.7987730000004376	2	49	5444.469641	87.5	0.8296004	2	0
113.15404980484163	0.7976680000001579	2	49	5445.231658	93.75	0.7928439999996044	2	0
113.95171780484179	0.8007668999998714	2	49	5445.981435	100	0.7449529999994411	1	0
114.75248470484166	0.7985385	2	49	5446.839745	93.75	0.8024959999993371	2	0
115.55102320484184	0.7979901	2	49	5447.658648	87.5	0.8228610999994999	2	0
116.34901330484172	0.7977965	2	49	5448.512538	81.25	0.8787603999999192	2	0
117.14680980484172	0.7980823999996574	2	49	5449.437	68.75	1.0054255999993984	2	0
117.94489220484138	0.8007771000002322	2	49	5450.154657	75	0.9250011000003724	2	0
118.74566930484161	0.7989231999999902	2	49	5450.807594	93.75	0.7771601999993436	2	0
119.5445925048416	0.7983206999997492	2	49	5451.489958	87.5	0.6606008999997357	1	0
120.34291320484135	0.7989456000004793	2	49	5452.295762	87.5	0.6680849000003946	1	0
121.14185880484183	0.799552	2	49	5453.214355	93.75	0.7877317999991647	2	0
121.94141080484133	0.7993191000005027	2	49	5453.937983	93.75	0.7118079000001671	1	0
122.74072990484183	0.7981233999998949	2	49	5454.835378	93.75	0.8098843999996461	2	0
123.53885330484172	0.7998497999997198	2	49	5455.511829	93.75	0.6882118999992599	1	0
124.33870310484144	0.7987895	2	49	5456.325047	93.75	0.7015793000000485	1	0
125.1374926048411	0.7995692000004055	1	0	0	0	0	0	0
125.9370618048415	0.8009357000000819	2	49	5457.909971	93.75	0.6881451999997807	1	0
126.73799750484159	0.8004092000001037	2	49	5458.798933	93.75	0.7761715999995431	2	0
127.53840670484169	0.7982594999994035	2	49	5459.71317	81.25	0.8899996000000101	2	0
128.3366662048411	0.7975701000004847	2	49	5460.468509	87.5	0.8470786000007138	2	0
129.13423630484158	0.7982778	1	49	5461.260018	87.5	0.8410174000000552	2	0
129.93251410484118	0.7995971000000281	2	49	5462.107452	81.25	0.8901739000002635	2	0
130.7321112048412	0.7987234	1	49	5462.787896	93.75	0.7710207000000082	2	0
131.5308346048414	0.7984403000000384	2	49	5463.606001	93.75	0.7904023999999481	2	0
132.32927490484144	0.8002436999995552	2	49	5464.550016	75	0.9359769000002416	2	0
133.1295186	0.7995885000000271	2	49	5465.214076	93.75	0.7997936000001573	2	0
133.92910710484102	0.7994465000001583	2	49	5465.876368	87.5	0.6624965000000884	1	0
134.72855360484118	0.799061	2	49	5466.737788	100	0.7244699000002583	1	0
135.5276146048418	0.8025698	2	49	5467.446116	87.5	0.6337372	1	0
136.33018440484102	0.7978757999999289	2	49	5468.334203	93.75	0.7192541000003985	1	0
137.12806020484095	0.7992277000003014	2	49	5469.142234	100	0.7294101000006776	1	0
137.92728790484125	0.7994703000003938	2	49	5470.226458	68.75	1.0144060000002355	2	0
138.72675820484164	0.8013686999993297	2	49	5470.912672	81.25	0.9011497999999847	2	0
139.52812690484097	0.7974575000007462	2	49	5471.605134	93.75	0.7922430000007807	2	0
140.32558440484172	0.7993533999997453	2	49	5472.451442	87.5	0.8410937999997259	2	0
141.12493780484147	0.7998674000000392	2	49	5473.259461	87.5	0.8497595	2	0
141.9248052048415	0.7998592	2	49	5473.947883	100	0.7383141000000251	1	0
142.72466440484095	0.8006691000000501	2	49	5474.744803	100	0.7353749000003518	1	0
143.5253335	0.7991357000000789	2	49	5475.551651	100	0.7415534000001571	1	0
144.32446920484108	0.7984915000006367	1	0	0	0	0	0	0
145.12296070484172	0.7994273999993311	2	49	5477.074572	87.5	0.6668469999995068	1	0
145.92238810484105	0.7991424000001643	2	49	5477.929741	100	0.7225889000001189	1	0
146.7215305048412	0.7993477999998504	2	49	5478.588844	81.25	0.5825498	1	0
147.52087830484106	0.7999765000004118	2	49	5479.447167	87.5	0.6415243999999802	1	0
148.32085480484147	0.7989592	2	49	5480.617704	68.75	1.0120845999999801	2	0
149.11981400484183	0.7978360999995857	2	49	5481.213983	93.75	0.8094050999998217	2	0
149.9176501048414	0.7977915999999823	2	49	5482.053586	87.5	0.8511717000001227	2	0
150.7154417048414	0.7998207000000548	2	49	5482.786805	93.75	0.7865991999997277	2	0
151.51526240484145	0.8001752000000124	2	49	5483.517632	93.75	0.7176050999996733	1	0
152.31543760484146	0.7989650999998048	2	49	5484.400082	93.75	0.7998807	2	0
153.11440270484127	0.7999079999999594	2	49	5485.278776	81.25	0.8796094999997877	2	0
153.91431070484123	0.7996213	1	49	5485.927809	100	0.7287338000005548	1	0
154.7139320048418	0.8000589999992371	2	49	5486.76477	100	0.7660740999999689	1	0
155.51399100484105	0.7984445	2	49	5487.536244	100	0.737489	1	0
156.31243550484123	0.7991025000001173	2	49	5488.343061	100	0.7458613999997397	1	0
157.11153800484135	0.7981687999999849	2	49	5489.204758	93.75	0.8084559	2	0
157.90970680484133	0.8018308000000616	2	49	5490.01924	87.5	0.8247693000002982	2	0
158.7115376048414	0.7984569999998712	2	49	5490.802434	93.75	0.8061324000000241	2	0
159.50999460484127	0.8010561000000962	2	49	5491.657589	87.5	0.8628307	2	0
160.31105070484136	0.7984096999998656	2	49	5492.394211	93.75	0.7983959000002869	2	0
161.10946040484123	0.7986448000001474	2	49	5493.307181	81.25	0.9129566999999952	2	0
161.90810520484138	0.7995376999997461	2	49	5494.076077	81.25	0.8832077999995818	2	0
162.70764290484112	0.7991178000002037	2	49	5494.828651	87.5	0.8362437	2	0
163.50676070484133	0.7980000999996264	2	49	5495.570089	93.75	0.7785644	2	0
164.30476080484095	0.7979912000000695	2	49	5496.342476	100	0.7529509000005419	1	0
165.10275200484102	0.7989334	2	49	5497.278247	81.25	0.8907312999999704	2	0
165.90168540484137	0.7974041999996189	2	49	5498.023072	87.5	0.8366229000002932	2	0
166.6990896	0.7984908000007636	2	49	5498.837542	87.5	0.8536887000000206	2	0
167.49758040484176	0.7991497999992134	2	49	5499.728741	75	0.9463962	2	0
168.29673020484097	0.8010362000004534	2	49	5500.473401	81.25	0.8919067	2	0
169.09776640484142	0.7974799000003259	2	49	5501.202423	87.5	0.8198922000001403	2	0
169.89524630484175	0.8002538000000641	2	49	5501.959331	93.75	0.7793204999998125	2	0
170.6955001048418	0.7983070999998745	2	49	5502.823449	87.5	0.8431845999994039	2	0
171.4938072048417	0.7979732999992848	2	49	5503.787495	68.75	1.0089232999998785	2	0
172.29178050484097	0.7991955000006783	2	49	5504.540446	75	0.9639011000008395	2	0
173.09097600484165	0.7980843999994249	2	49	5505.303393	75	0.9276523999997153	2	0
173.88906040484108	0.7988469000001714	2	49	5506.063421	81.25	0.8895964000003005	2	0
174.68790730484125	0.7985125	1	49	5506.826741	87.5	0.8540695000001506	2	0
175.48641980484172	0.7996364999999059	2	49	5507.620132	87.5	0.8489480999996886	2	0
176.28605630484162	0.7997372999998333	2	49	5508.4455	81.25	0.8746799000000465	2	0
177.08579360484146	0.7995846000003439	2	49	5509.132988	100	0.7624304999999367	1	0
177.8853782048418	0.8007807	1	49	5509.927805	100	0.7576623999993899	1	0
178.68615890484125	0.7986146000002918	2	49	5510.754679	93.75	0.783756	2	0
179.48477350484154	0.7990923999996085	2	49	5511.580683	93.75	0.8111453999999867	2	0
180.28386590484115	0.7982853000003161	2	49	5512.446824	81.25	0.878194	2	0
181.08215120484147	0.7997136000003593	1	0	0	0	0	0	0
181.88186480484183	0.7997148999993442	2	49	5513.843635	93.75	0.6770061	1	0
182.68157970484117	0.7970015999999305	2	49	5514.664798	93.75	0.6984542999998666	1	0
183.4785813048411	0.7993989000005968	2	49	5515.539739	93.75	0.7763936000001195	2	0
184.2779802048417	0.8030036999998629	2	49	5516.487698	75	0.9249534999999014	2	0
185.08098390484156	0.8006617999999435	2	49	5517.122284	100	0.7565362	1	0
185.8816457048415	0.8002681	2	49	5517.979038	93.75	0.8126283999999941	2	0
186.68191380484132	0.7991772000004858	2	49	5518.733118	100	0.7664399000004778	1	0
187.4810910048418	0.8005207999995037	1	49	5519.62899	87.5	0.8631351999993058	2	0
188.2816118048413	0.7993164999998044	2	49	5520.476874	81.25	0.9104980000001888	2	0
189.0809283048411	0.8000130999998873	2	49	5521.244869	81.25	0.8791765000005398	2	0
189.8809414	0.8004428000003827	2	49	5522.020089	87.5	0.8543830000007802	2	0
190.68138420484138	0.8002722999999605	2	49	5522.90115	75	0.9350012000004426	2	0
191.48165650484134	0.7978171000004295	1	0	0	0	0	0	0
192.27947360484177	0.8000198999998247	2	49	5524.268528	93.75	0.7042898999998215	1	0
193.0794935048416	0.8002147999995941	2	49	5525.148317	93.75	0.7840593999999328	2	0
193.8797083048412	0.8006900999998834	1	49	5526.05993	81.25	0.8954577000004065	2	0
194.68039840484107	0.7976198000005752	2	49	5526.92705	75	0.9618878999999652	2	0
195.47801820484165	0.8002140999997209	2	49	5527.804376	62.5	1.0415941000001112	2	0
196.27823230484137	0.7967448999997941	2	49	5528.374126	93.75	0.8111294000000271	2	0
197.07497720484116	0.8013856000006854	2	49	5529.245065	81.25	0.8853238000001511	2	0
197.87636280484185	0.7988650999996025	2	49	5530.075435	81.25	0.914308	2	0
198.67522790484145	0.7988925999998173	2	49	5530.709349	100	0.7493568999998388	1	0
199.47412050484127	0.8001854000003732	1	49	5531.558481	93.75	0.7995960999996896	2	0
200.27430590484164	0.7997003999998924	1	0	0	0	0	0	0
201.07400630484153	0.7982052999996085	1	49	5533.140477	93.75	0.7817064000000755	2	0
201.87221160484114	0.7985288999998374	2	0	0	0	0	0	0
202.67074050484098	0.7985149000005549	2	49	5534.742671	93.75	0.7871659000002182	2	0
203.46925540484153	0.7986544999994294	2	49	5535.582307	87.5	0.8282874999995329	2	0
204.26790990484096	0.8004702000007455	2	49	5536.356453	93.75	0.8037792000004629	2	0
205.0683801048417	0.7984621999994488	2	49	5537.156595	93.75	0.8034508999999161	2	0
205.86684230484116	0.7985254000004716	2	49	5538.098023	75	0.9464163000002372	2	0
206.66536770484163	0.7979719999993904	2	49	5538.724534	93.75	0.7744020000000091	2	0
207.46333970484102	0.7973302000000331	2	49	5539.506777	100	0.7586731000001237	1	0
208.26066990484105	0.7991534000002503	2	49	5540.299725	100	0.7542909000003419	1	0
209.0598233048413	0.8015823000005184	2	49	5541.162799	93.75	0.8182120000001305	2	0
209.86140560484182	0.7984500999991724	2	49	5542.105505	75	0.9593350999994072	2	0
210.6598557	0.7989892000005057	2	49	5542.774534	93.75	0.8299145000000863	2	0
211.4588449048415	0.7998239999997168	2	49	5543.41494	87.5	0.6713306999999986	1	0
212.25866890484122	0.7981114	2	49	5544.332845	93.75	0.7894115999997666	2	0
213.0567803048416	0.7981211	2	49	5545.110832	93.75	0.7692870999999286	2	0
213.85490140484126	0.7978812000001199	2	49	5546.019692	81.25	0.8800265999998373	2	0
214.65278260484138	0.8025179	2	49	5546.697217	100	0.7596702999999252	1	0
215.45530050484103	0.8003148000007059	2	49	5547.557955	93.75	0.8178906000002826	2	0
216.25561530484174	0.7986132	2	49	5548.485751	75	0.9453716999996686	2	0
217.05422850484138	0.7983721000000514	2	49	5549.192169	87.5	0.8531758999997692	2	0
217.85260060484143	0.7996752999997625	2	49	5550.127427	68.75	0.9900619999998526	2	0
218.6522759048412	0.7988247000002957	2	49	5550.85105	81.25	0.9140100000004168	2	0
219.45110060484149	0.7985900000003312	2	49	5551.758896	62.5	1.023030999999719	2	0
220.24969060484182	0.8008534999999029	2	49	5552.338006	93.75	0.8035508999992089	2	0
221.05054410484172	0.8020458999999391	2	49	5553.167181	87.5	0.8318722999993042	2	0
221.85259000484166	0.7982606999994459	2	49	5554.032266	81.25	0.8949116999992839	2	0
222.6508507048411	0.7984045	2	49	5554.656118	100	0.7205026999999973	1	0
223.4492552048414	0.8002665000003617	1	49	5555.499194	100	0.7651746999999887	1	0
224.24952170484175	0.7989741999999751	2	49	5556.680994	50	1.146708100000069	2	0
225.04849590484173	0.7988324999996621	2	49	5557.197259	87.5	0.8639993999995568	2	0
225.8473284048414	0.8008919000003516	2	49	5558.020158	81.25	0.8880650000000969	2	0
226.64822030484174	0.7985774999997375	2	49	5558.776514	87.5	0.8435294999999314	2	0
227.44679780484148	0.8000243999995291	2	49	5559.70806	68.75	0.9764985000001616	2	0
228.2468222	0.7969771000007313	1	0	0	0	0	0	0
229.04379930484174	0.8001059999996869	2	49	5561.14261	93.75	0.8140469999998459	2	0
229.84390530484143	0.7980350999996517	2	49	5561.872772	100	0.7441028000002916	1	0
230.64194040484108	0.7982950000005076	2	49	5562.712447	93.75	0.7857420999998794	2	0
231.4402354048416	0.7986485999999786	2	49	5563.607368	81.25	0.8823683999999048	2	0
232.23888400484157	0.8000806000000011	2	49	5564.241256	93.75	0.7176078000002235	1	0
233.03896460484157	0.8002110999996148	2	49	5565.174344	87.5	0.8506155999994007	2	0
233.83917570484118	0.7999200000003839	2	49	5565.924455	93.75	0.8005149999999048	2	0
234.63909570484157	0.8002152999997634	2	49	5566.753376	87.5	0.8295164000001023	2	0
235.43931100484133	0.8003885999996783	2	49	5567.506649	93.75	0.7825736000004326	2	0
236.2396996	0.7992015	2	49	5568.5076	68.75	0.9831358000001273	2	0
237.0389011	0.7991586000007374	2	49	5569.238621	81.25	0.9149562000002334	2	0
237.83805970484173	0.7997165999995559	2	49	5569.923437	93.75	0.8006133999997473	2	0
238.63777630484128	0.8000841000002765	2	49	5570.720968	93.75	0.7984274999998888	2	0
239.43786040484156	0.8016667000001689	2	49	5571.481972	100	0.7593471000000136	1	0
240.23952710484173	0.7992320999992444	2	49	5572.294842	93.75	0.7705511999993178	2	0
241.03875920484097	0.8007518000003984	2	49	5573.130704	93.75	0.8071809000002759	2	0
241.83951100484137	0.7985496000001149	2	49	5573.936251	93.75	0.8119763000004241	2	0
242.63806060484148	0.7991996000000654	2	49	5574.713856	93.75	0.7910314999999173	2	0
243.43726020484155	0.7981443999997282	2	49	5575.57269	87.5	0.8506655999999566	2	0
244.23540460484128	0.7993588999997883	1	0	0	0	0	0	0
245.03476350484107	0.7973949000006542	2	49	5576.679168	50	0.35964030000013736	1	0
245.83215840484172	0.7989818999994895	2	49	5577.764246	87.5	0.6473235	1	0
246.6311403048412	0.7987744	2	49	5578.676543	100	0.7606384000000617	1	0
247.4299147048414	0.7987589000003936	2	49	5579.489812	93.75	0.7751328000003923	2	0
248.2286736048418	0.7960487999998804	2	49	5580.362003	87.5	0.8485655999993469	2	0
249.02472240484167	0.7994839	2	49	5581.425106	56.25	1.1156191000000035	2	0
249.82420630484103	0.7983184000004258	2	49	5582.035083	75	0.9261122000007163	2	0
250.62252470484145	0.7989641000003758	2	49	5582.681971	93.75	0.7746817999995983	2	0
251.42148880484183	0.8000419999998485	2	49	5583.389911	93.75	0.6836581	1	0
252.22153080484168	0.8009308999999121	2	49	5584.22956	100	0.7232653000000937	1	0
253.0224617048416	0.7980885999995735	1	0	0	0	0	0	0
253.82055030484116	0.7982846000004429	2	49	5585.900966	93.75	0.7956516	2	0
254.6188349048416	0.7986295000000609	2	49	5586.637016	100	0.7334168	1	0
255.41746440484167	0.7986534000001484	2	49	5587.420419	93.75	0.7181909000000815	1	0
256.2161178048418	0.7980366	1	49	5588.330966	87.5	0.8300842999997258	2	0
257.01415440484107	0.7977203999998892	2	49	5589.268444	75	0.9695257000003039	2	0
257.81187480484095	0.7991967000007207	2	49	5589.912347	93.75	0.815708	2	0
258.6110715048417	0.7989388999994844	2	49	5590.608681	93.75	0.7128449000001638	1	0
259.41001040484116	0.7987724000004164	2	49	5591.528358	87.5	0.8335838000002695	2	0
260.2087828048416	0.8000304999995933	2	49	5592.37549	81.25	0.8819431000001714	2	0
261.00881330484117	0.7989723999999114	2	49	5593.06646	93.75	0.7728828999997859	2	0
261.8077857048411	0.7991025999999692	2	49	5594.067485	68.75	0.9749348000004829	2	0
262.60688830484105	0.7982504999999946	1	0	0	0	0	0	0
263.40513880484104	0.8009959	2	49	5595.474427	93.75	0.7845241000004535	2	0
264.20613470484113	0.7991566999999122	2	49	5596.195684	93.75	0.7047851000006631	1	0
265.00529140484105	0.7992047000007005	2	49	5596.947993	87.5	0.6579372000005606	1	0
265.80449610484175	0.8020351999994091	2	49	5597.934751	87.5	0.8454910999998901	2	0
266.60653130484116	0.7991081000000122	2	49	5598.686384	93.75	0.7950888000004852	2	0
267.40563940484117	0.7990076000005502	1	49	5599.531592	87.5	0.8411881000001813	2	0
268.2046470048417	0.7992907999996532	2	49	5600.227758	100	0.7383466999999655	1	0
269.00393780484137	0.8009224	2	49	5601.105809	93.75	0.8171069999998508	2	0
269.80486020484113	0.7999157000003834	2	49	5601.954827	87.5	0.8652030000002924	2	0
270.6047759048415	0.8008958000000348	1	49	5602.864076	68.75	0.9745364000000336	2	0
271.40567170484155	0.7996709	1	0	0	0	0	0	0
272.20534260484146	0.7996141000003263	2	49	5604.287864	93.75	0.7977573999996821	2	0
273.0049567048418	0.7979242999999769	2	49	5605.027837	100	0.7381165999995574	1	0
273.80288100484177	0.7996964999992997	2	49	5605.936168	87.5	0.8485227999999552	2	0
274.60257750484107	0.8015970000005836	2	49	5606.779909	81.25	0.8925673000003371	2	0
275.40417450484165	0.7982763999998497	2	49	5607.54078	87.5	0.8518410999995467	2	0
276.2024509048415	0.7983412000003227	2	49	5608.328309	87.5	0.8410937999997259	2	0
277.0007921048418	0.7993335999999545	1	0	0	0	0	0	0
277.8001257048418	0.7994423999998617	2	49	5609.796647	93.75	0.7117570999998861	1	0
278.59956810484164	0.7999039999995148	2	49	5610.899961	68.75	1.0156284999993659	2	0
279.39947210484115	0.7988430000004882	2	49	5611.501923	93.75	0.8176868000000468	2	0
280.19831510484164	0.7990403	2	49	5612.220331	100	0.7372513999998773	1	0
280.9973554048411	0.8024008000002141	2	49	5613.058027	93.75	0.7759074000005057	2	0
281.7997562048413	0.7992467000003671	2	49	5613.910976	87.5	0.8264561000005415	2	0
282.59900290484165	0.7988163999998505	2	49	5614.793375	81.25	0.9096075999996174	2	0
283.3978193048415	0.7991437000000587	1	49	5615.413122	100	0.7305384	1	0
284.19696300484156	0.7984599999999773	2	49	5616.498014	68.75	1.0162865000002057	2	0
284.99542300484154	0.8000615999999354	2	49	5617.204208	75	0.9240203999997902	2	0
285.7954846048415	0.7981253999996625	2	49	5618.001538	75	0.9212889000000359	2	0
286.59361000484114	0.7990939000001163	2	49	5618.771874	81.25	0.8934999	2	0
287.39270390484126	0.8000667000005706	2	49	5619.755391	56.25	1.0779233000002932	2	0
288.1927706048418	0.8008261	2	49	5620.298403	93.75	0.8208684999999605	2	0
288.99359670484137	0.7997145999997883	2	49	5621.26671	68.75	0.9883496000002197	2	0
289.79331130484115	0.7992066000006162	2	49	5621.851441	93.75	0.7733652000006259	2	0
290.59251790484177	0.7997049999994488	2	49	5622.721638	87.5	0.8443558999997549	2	0
291.3922229048412	0.7969510000002629	2	49	5623.55908	81.25	0.8820928000004642	2	0
292.1891739048415	0.7995974	2	49	5624.386578	81.25	0.9126402	2	0
292.98877130484107	0.7989935000005062	2	49	5625.142411	87.5	0.8688753000005818	2	0
293.7877648048416	0.7986826999995174	2	49	5625.960727	81.25	0.8881982000002608	2	0
294.5864475048411	0.7991630000005898	2	49	5626.944852	56.25	1.0736406000005445	2	0
295.3856105048417	0.8007398999998259	2	49	5627.551432	81.25	0.8810570999994525	2	0
296.1863504048415	0.7974370000001727	1	0	0	0	0	0	0
296.9837874048417	0.7991191000000981	2	0	0	0	0	0	0
297.7829065048418	0.7998053999999684	2	49	5629.831587	100	0.7639163999992888	1	0
298.58271190484174	0.7999433999993926	1	0	0	0	0	0	0
299.38265530484114	0.7983577000004516	2	49	5631.481715	93.75	0.8142951999998331	2	0
300.1810130048416	0.7992239999994126	1	0	0	0	0	0	0
300.980237	0.8005608000003122	1	0	0	0	0	0	0
301.7807978048413	0.8006658000003881	2	49	5633.851605	93.75	0.7860426	2	0
302.5814636048417	0.8003410000001168	2	49	5634.584658	93.75	0.7184299000000465	1	0
303.3818046048418	0.7972860999998375	2	49	5635.388813	100	0.7222444999997606	1	0
304.17909070484166	0.7984173	1	0	0	0	0	0	0
304.9775080048412	0.8002700000006371	2	49	5636.986782	100	0.7245103000004747	1	0
305.7777780048418	0.8002728999999817	2	49	5637.875707	93.75	0.8131647999998677	2	0
306.5780509048418	0.7972603999996863	1	0	0	0	0	0	0
307.3753113048415	0.8003693000000567	2	49	5639.300719	87.5	0.6406436999996004	1	0
308.17568060484155	0.7976904999995895	2	49	5640.13299	93.75	0.6725448999995933	1	0
308.97337110484114	0.7990207000002556	2	49	5641.016893	100	0.7587578000002395	1	0
309.7723918048414	0.7994073999998363	2	49	5641.945102	81.25	0.8879464000001462	2	0
310.5717992048412	0.7996509000004153	1	0	0	0	0	0	0
311.37145010484164	0.8018289	2	49	5643.63069	68.75	0.9744755000001533	2	0
312.1732790048418	0.7978689999999915	1	49	5644.307007	87.5	0.8489635999994789	2	0
312.9711480048418	0.8002755999996225	2	49	5645.207241	75	0.9513291999992362	2	0
313.7714236048414	0.7991212999995696	2	49	5645.92713	87.5	0.8709419999995589	2	0
314.5705449	0.7999042000001282	2	49	5646.700631	87.5	0.8453224000004411	2	0
315.3704491048411	0.7991572000000815	2	49	5647.584193	75	0.9289800000005926	2	0
316.1696063048412	0.7993574	2	49	5648.340946	81.25	0.8865755000006175	2	0
316.96896370484137	0.7990497999999207	2	49	5649.162605	81.25	0.9088773	2	0
317.7680135048413	0.8005717000005461	1	0	0	0	0	0	0
318.56858520484184	0.7987143999998807	2	49	5650.737823	81.25	0.8844736999999441	2	0
319.3672996048417	0.7970519999998942	2	49	5651.452156	93.75	0.8000923999998122	2	0
320.1643516048416	0.7964959000000817	1	49	5652.329352	81.25	0.8802362	2	0
320.9608475048417	0.7999288999999408	2	49	5653.044032	93.75	0.7984204999993381	2	0
321.76077640484164	0.7970670999993672	1	49	5653.891458	87.5	0.8459176	2	0
322.5578435	0.8013774000000922	2	49	5654.673289	87.5	0.8306816000003892	2	0
323.3592209048411	0.7988218999998935	2	49	5655.50443	87.5	0.8604448000005505	2	0
324.1580428	0.8007520000001023	2	49	5656.233613	93.75	0.7908064000002923	2	0
324.9587948048411	0.8005632	2	49	5657.12046	81.25	0.8769015	2	0
325.7593580048415	0.7994831999994858	2	49	5657.990624	75	0.9465017000002263	2	0
326.5588412	0.7987026000000697	2	49	5658.86852	62.5	1.0249147000004086	2	0
327.35754380484104	0.8018898000000263	2	49	5659.551809	81.25	0.9095006000006833	2	0
328.15943360484107	0.8000785000003816	2	49	5660.275848	87.5	0.8316506000001027	2	0
328.95951210484145	0.7974206999997477	2	49	5661.150661	81.25	0.9063843000003544	2	0
329.7569328048412	0.7985537000004115	1	49	5661.789718	100	0.7480206	1	0
330.5554865048416	0.7996861000001445	2	49	5662.884639	62.5	1.0443882999998095	2	0
331.35517260484175	0.7987665999999081	2	49	5663.423664	93.75	0.7837272999995548	2	0
332.15393920484166	0.7979079	2	49	5664.449973	68.75	1.0112694999997984	2	0
332.95184710484136	0.7989024999997127	2	49	5665.35193	56.25	1.1153187999998408	2	0
333.7507496048411	0.8007923000004666	2	49	5665.936863	81.25	0.9013497000005373	2	0
334.55154190484154	0.7995369	2	49	5666.769756	75	0.9334496999999828	2	0
335.35107880484156	0.7986464999994496	1	0	0	0	0	0	0
336.1497253	0.8020109000008233	2	49	5668.241233	93.75	0.8067437	2	0
336.95173620484184	0.8021344999997382	2	49	5669.048137	93.75	0.8116364999996222	2	0
337.7538707048416	0.7982508999994025	2	49	5669.816983	93.75	0.7783480999996755	2	0
338.5521216	0.8000100000008388	2	49	5670.768742	75	0.9318565000003218	2	0
339.3521316048418	0.7998214	2	49	5671.470537	87.5	0.8336407999995572	2	0
340.15195300484174	0.7986766999993051	1	49	5672.370369	75	0.9336520999995628	2	0
340.95062970484105	0.7994032000005973	2	49	5673.198839	75	0.9634451000001718	2	0
341.75003290484165	0.7982013999999253	2	49	5673.895919	87.5	0.8611219999993409	2	0
342.54823430484157	0.7975902999996833	2	49	5674.622271	93.75	0.7892726000000039	2	0
343.34582460484125	0.8005345000001398	2	49	5675.329827	93.75	0.6992378000004464	1	0
344.1463591048414	0.7999227999998766	2	49	5676.289321	87.5	0.8581978000001982	2	0
344.94628190484127	0.8001825	2	49	5677.194179	75	0.9631331	2	0
345.7464644048414	0.8006187000000864	2	49	5677.972556	75	0.9413271000003078	2	0
346.5470831048415	0.7994920000001002	2	49	5678.725311	81.25	0.8934633999997459	2	0
347.3465751048416	0.7995209999999133	2	49	5679.432203	93.75	0.8008640999996715	2	0
348.1460961048415	0.7993481000003158	2	49	5680.193434	100	0.7625740000003134	1	0
348.9454442048418	0.7999560999996902	2	49	5680.968717	100	0.7385082999999213	1	0
349.7454003048415	0.8003931000002922	2	49	5681.767358	100	0.7371934000002511	1	0
350.5457934048418	0.7991779999993014	2	49	5682.591671	100	0.7611131999992722	1	0
351.3449714048411	0.8005853000004208	2	49	5683.401406	93.75	0.7716705000002548	2	0
352.1455567048415	0.7988071999998283	2	49	5684.505347	56.25	1.0750262999999904	2	0
352.94436390484134	0.7995376999997461	2	49	5685.113468	81.25	0.8843403000000762	2	0
353.7439016048411	0.7983523000002606	2	49	5685.970542	75	0.9418765999998868	2	0
354.54225390484135	0.7978067000003648	1	49	5686.630838	93.75	0.8038196999996217	2	0
355.3400606048417	0.8015967999999702	2	49	5687.328439	93.75	0.7036142999995718	1	0
356.1416574048417	0.8005855999999767	2	49	5688.536111	56.25	1.1096896999997625	2	0
356.94224300484166	0.7991910000000644	2	49	5689.192812	75	0.9658051999995223	2	0
357.7414340048417	0.7996992999997019	1	0	0	0	0	0	0
358.5411333048414	0.7999430999998367	2	49	5690.812471	68.75	0.9865737000000081	2	0
359.34107640484126	0.8000864000005095	2	49	5691.52859	81.25	0.9027492000004713	2	0
360.14116280484177	0.8009734999995999	2	49	5692.485789	62.5	1.059861899999305	2	0
360.94213630484137	0.7980262000000948	2	0	0	0	0	0	0
361.74016250484146	0.7993569000000207	2	49	5693.845786	87.5	0.8208591000002343	2	0
362.5395194048415	0.7982393000002048	2	49	5694.816769	68.75	0.9924850999996124	2	0
363.3377587048417	0.7976810000000114	2	49	5695.47695	87.5	0.8544268999994529	2	0
364.1354397048417	0.7980029000000286	2	49	5696.160611	100	0.7404067999996187	1	0
364.93344260484173	0.8009610999997676	2	49	5697.074035	87.5	0.8558278000000428	2	0
365.7344037048415	0.7993332999994891	2	49	5698.073773	62.5	1.0546050000002651	2	0
366.533737	0.7992844000000332	2	0	0	0	0	0	0
367.3330214	0.7981788000006418	2	49	5699.068961	62.5	0.4511759	1	0
368.13120020484166	0.7993022000000565	1	49	5700.219819	93.75	0.8038547	2	0
368.9305024048417	0.7967934999996942	2	49	5700.996224	93.75	0.7809570999997959	2	0
369.7272959048414	0.7997193999999581	2	49	5701.886856	81.25	0.8747962999996162	2	0
370.52701530484137	0.8008560999996917	2	49	5702.632268	93.75	0.8204885000004651	2	0
371.32787140484106	0.7984335	2	49	5703.399251	93.75	0.7866155000001527	2	0
372.12630490484116	0.7983336000006602	2	49	5704.23113	93.75	0.8200612000000547	2	0
372.9246385048418	0.8006117999993876	2	49	5705.126939	81.25	0.9175362999994832	2	0
373.7252503048412	0.7986834	1	0	0	0	0	0	0
374.5239337048415	0.7987482999997155	2	49	5706.539923	100	0.7312251000003016	1	0
375.3226820048412	0.7980604	2	49	5707.508022	81.25	0.9005756000005931	2	0
376.1207424048416	0.7986436000001049	2	49	5708.318078	81.25	0.9125716999997167	2	0
376.9193860048417	0.7990032999996401	2	49	5709.002415	93.75	0.7982646999998906	2	0
377.71838930484137	0.7983176999996431	1	49	5709.942539	75	0.9393853	2	0
378.516707	0.7977800000007846	2	49	5710.765364	75	0.9638924	2	0
379.3144870048418	0.7982869999996183	2	49	5711.629371	62.5	1.0301196999998865	2	0
380.1127740048414	0.7986014999996769	2	49	5712.43544	62.5	1.0379015999997137	2	0
380.9113755048411	0.7986762999998973	2	49	5713.18911	68.75	0.9929707999999664	2	0
381.7100518	0.7995600000003833	2	49	5713.91612	75	0.9213044000007358	2	0
382.50961180484137	0.7994951999999103	2	49	5714.616501	87.5	0.8221252000003005	2	0
383.3091070048413	0.7990877000002001	1	0	0	0	0	0	0
384.1081947048415	0.7984503999996377	2	49	5716.138269	100	0.7453103999996529	1	0
384.9066451048411	0.7994451000004119	2	49	5716.975452	93.75	0.7840431000004173	2	0
385.70609020484153	0.7993888000000879	2	49	5717.80085	93.75	0.8099953999999343	2	0
386.5054790048416	0.7998354	2	49	5718.783495	68.75	0.9932517	2	0
387.30531440484174	0.7976808	2	49	5719.529158	75	0.9390794999999343	2	0
388.10299520484114	0.7989912000002732	1	0	0	0	0	0	0
388.9019864048414	0.7995075999997425	2	49	5721.157544	68.75	0.9707938999999897	2	0
389.70149400484115	0.7965590000003431	1	0	0	0	0	0	0
390.4980530048415	0.8008901000002879	2	49	5722.578755	93.75	0.7959375999998883	2	0
391.2989431048418	0.7997313999994731	2	49	5723.512606	75	0.9288991999992504	2	0
392.09867450484126	0.8020274000000427	2	49	5724.260759	81.25	0.8773203000000649	2	0
392.9007019048413	0.7989238000000114	2	49	5724.858621	93.75	0.6731545	1	0
393.6996257048413	0.7985799999996743	2	49	5725.781532	93.75	0.7971426000003703	2	0
394.4982057	0.7992611	2	49	5726.872735	56.25	1.089765200000329	2	0
395.29746680484095	0.7991794000008667	2	0	0	0	0	0	0
396.0966462048418	0.7985678999993979	2	49	5727.804003	62.5	0.42259309999917605	1	0
396.8952141048412	0.7993664000005083	2	49	5729.123704	75	0.9437256000001071	2	0
397.6945805048417	0.7976898999995683	1	49	5729.959815	68.75	0.9804704999996829	2	0
398.4922704048413	0.7978835000003528	2	49	5730.743714	75	0.9666799	2	0
399.29015390484165	0.7993225000000166	2	49	5731.61605	62.5	1.0411316999998235	2	0
400.08947640484166	0.7973603999998886	2	49	5732.39401	62.5	1.0197690999993938	2	0
400.88683680484155	0.7981645999998364	2	49	5733.182869	68.75	1.0112676999997348	2	0
401.6850014048414	0.7971049999996467	2	49	5733.865016	81.25	0.8952505999995992	2	0
402.48210640484103	0.7989625	2	49	5734.694977	75	0.9281069000007847	2	0
403.28106890484105	0.7997279000001072	2	49	5735.547938	68.75	0.9821054000003642	2	0
404.08079680484116	0.8012173000006442	2	49	5736.401105	62.5	1.035544	2	0
404.8820141048418	0.7998648999991929	2	49	5737.21622	62.5	1.0494418999996924	2	0
405.681879	0.7986482000005708	2	0	0	0	0	0	0
406.48052720484156	0.8003569000002244	2	49	5738.560534	93.75	0.7952429999995729	2	0
407.2808841048418	0.7998750999995536	2	49	5739.663861	56.25	1.098212500000045	2	0
408.08075920484134	0.8010168000000704	2	49	5740.629715	37.5	1.264191999999639	2	0
408.8817760048414	0.7995776999996451	2	49	5741.063111	81.25	0.8965709000003699	2	0
409.68135370484106	0.7984535000005053	2	49	5741.931094	75	0.9649763000006715	2	0
410.47980720484156	0.7979531999999381	2	49	5742.566332	93.75	0.8017601999999897	2	0
411.2777604048415	0.7992158999995809	2	49	5743.318585	100	0.7560609000001932	1	0
412.0769763048411	0.8011008	2	49	5744.137098	93.75	0.7753575000006094	2	0
412.8780771048414	0.7996767000004184	2	49	5745.227127	62.5	1.0642853999997897	2	0
413.6777538048418	0.7944281999998566	2	49	5745.978335	62.5	1.0158170999993672	2	0
414.47218200484167	0.7959514999993189	2	49	5746.743577	68.75	0.9866309999997611	2	0
415.2681335	0.7987666000008176	2	49	5747.553608	68.75	1.0007103000007191	2	0
416.0669001048418	0.7982277999999496	2	49	5748.216557	87.5	0.8648924999997689	2	0
416.86512790484176	0.7999602999998388	2	49	5749.36746	43.75	1.217567799999415	2	0
417.6650882048416	0.7993354000000181	2	49	5749.874625	75	0.9247730999995838	2	0
418.4644236048416	0.8003343000000314	2	49	5750.759019	68.75	1.0098314999995637	2	0
419.26475790484164	0.7989364999993995	2	49	5751.325513	93.75	0.7759904999993523	2	0
420.06369440484104	0.7997027999999773	2	49	5752.018974	87.5	0.6705154	1	0
420.8633972	0.7983766000006653	2	49	5752.950698	93.75	0.8025366000001668	2	0
421.6617738048417	0.7995694999999614	2	49	5753.781656	87.5	0.8351179999999658	2	0
422.46134330484165	0.7977063999996972	1	49	5754.544815	93.75	0.7987070999997741	2	0
423.25904970484135	0.7997674999996889	2	49	5755.486687	75	0.9428728000002593	2	0
424.05881720484103	0.7991594000004625	2	49	5756.254012	81.25	0.9104305	2	0
424.8579766048415	0.7997119999999995	2	49	5757.048829	81.25	0.9060878	2	0
425.6576886048415	0.7990876000003482	1	0	0	0	0	0	0
426.45677620484184	0.7992205999998987	2	49	5758.156787	56.25	0.41524679999929504	1	0
427.25599680484174	0.7989503999997396	2	49	5759.455742	81.25	0.9149812999994538	2	0
428.0549472048415	0.8018962999994983	2	49	5760.055897	93.75	0.7161858999998003	1	0
428.8568435	0.7989623000003121	2	49	5761.056088	81.25	0.9144803000008324	2	0
429.6558058048413	0.7991786000002321	2	49	5762.090822	50	1.150251600000047	2	0
430.4549844048415	0.8028494999998657	1	0	0	0	0	0	0
431.2578339048414	0.7970654	2	49	5763.235795	93.75	0.6931971000003614	1	0
432.05489930484146	0.7997475000001941	2	49	5764.278155	75	0.9384917999996105	2	0
432.85464680484165	0.8003668000001198	1	49	5765.260243	56.25	1.120831599999292	2	0
433.65501360484177	0.8004375999998956	2	49	5765.946064	68.75	1.006286399999226	2	0
434.45545120484167	0.7988113999999769	2	49	5766.696018	75	0.9558025999995152	2	0
435.25426260484164	0.8007816999997885	2	49	5767.407159	87.5	0.8681321999993088	2	0
436.05504430484143	0.7988949000000503	2	49	5768.329801	68.75	0.9899925999998231	2	0
436.8539392048415	0.7999910999997155	2	49	5769.001207	87.5	0.8625037000001612	2	0
437.6539303048412	0.7987738000001627	2	49	5769.696422	100	0.7577276000001802	1	0
438.45270410484136	0.7991977000001498	2	49	5770.629708	81.25	0.8922399	2	0
439.2519018048415	0.7984177999996973	2	49	5771.507488	68.75	0.9708221999999296	2	0
440.0503196048412	0.7998157000001811	2	49	5772.346749	68.75	1.011665300000459	2	0
440.8501353048414	0.8009099000000788	2	49	5773.128385	68.75	0.9934856999998374	2	0
441.65104520484147	0.8005426999998235	2	49	5773.892397	75	0.9565880000000107	2	0
442.4515879048413	0.8003137000005154	2	49	5774.764221	62.5	1.0278693999998723	2	0
443.2519016048418	0.7996552999993582	2	49	5775.469296	75	0.9326297999996314	2	0
444.05155690484116	0.8020098000006328	2	49	5776.208232	87.5	0.8719114000004993	2	0
444.8535667048418	0.7986066999992545	2	49	5777.021532	81.25	0.8832012999992003	2	0
445.65217340484105	0.7993294000007154	2	49	5777.801742	87.5	0.8648049000003084	2	0
446.45150280484177	0.7998216999994838	2	49	5778.524472	93.75	0.7882055000000037	2	0
447.25132450484125	0.8004212000005282	2	49	5779.348662	93.75	0.8125729000003048	2	0
448.0517457048418	0.7982179999999062	2	49	5780.065608	100	0.7290984999999637	1	0
448.8499637048417	0.7990910999997141	2	49	5780.930982	93.75	0.7962540999997145	2	0
449.6490548048414	0.7993684000002759	1	0	0	0	0	0	0
450.4484232048417	0.7980391000000964	2	49	5782.444682	93.75	0.7114949999995588	1	0
451.24646230484177	0.7980811	2	49	5783.340262	93.75	0.8090351000000737	2	0
452.04454340484153	0.8003499999995256	2	49	5784.108634	93.75	0.7793267999995805	2	0
452.84489340484106	0.7979961000000912	2	49	5784.941904	93.75	0.8122460000004139	2	0
453.64288950484115	0.7997219	2	49	5785.834864	81.25	0.9072101000001567	2	0
454.44261140484105	0.7998513000002276	2	49	5786.948052	37.5	1.2206765000000814	2	0
455.2424627048413	0.7995796000004702	2	49	5787.532816	68.75	1.0055896000003486	2	0
456.04204230484174	0.7986753999994107	2	49	5788.283018	75	0.9562114000000292	2	0
456.84071770484115	0.7986709000006158	2	49	5789.0007	81.25	0.8752177000005759	2	0
457.63938860484177	0.8000001999998858	2	49	5789.736019	93.75	0.8118657999993957	2	0
458.43938880484166	0.7993492999994487	2	49	5790.550745	87.5	0.8265923	2	0
459.2387381048411	0.7994981000001644	2	49	5791.502846	68.75	0.9793439000004582	2	0
460.03823620484127	0.7983363	1	49	5792.241008	81.25	0.9180077999999412	2	0
460.83657250484157	0.7995682	1	49	5793.051152	75	0.9298158000001422	2	0
461.63614070484164	0.7998479999996562	2	49	5793.869104	75	0.9481986999999208	2	0
462.4359887048413	0.7991989000001922	2	49	5794.644321	75	0.9235685000003286	2	0
463.2351876048415	0.7993949000001521	2	49	5795.456321	75	0.9363688000003094	2	0
464.03458250484164	0.7993632999996407	2	49	5796.207964	81.25	0.8886169999996127	2	0
464.8339458048413	0.7992996000002677	2	49	5796.920141	93.75	0.8014315000000352	2	0
465.63324540484155	0.7995590000000448	1	49	5797.785994	87.5	0.8679844999996931	2	0
466.4328044048416	0.7998587000001862	2	49	5798.645017	75	0.9274482999999236	2	0
467.2326631048418	0.7989744	2	49	5799.242982	100	0.7255545999996684	1	0
468.03163750484146	0.7976056999996217	2	49	5800.035728	93.75	0.7193258999996033	1	0
468.8292432048411	0.8001837000001615	2	49	5800.836154	100	0.7221470000004047	1	0
469.62942690484124	0.7990050999997038	2	49	5801.719229	93.75	0.8050382000001264	2	0
470.42843200484094	0.7999870000003284	2	49	5802.575449	87.5	0.8622524000002159	2	0
471.22841900484127	0.7972275	2	49	5803.207936	93.75	0.6947533000002295	1	0
472.02564650484146	0.7999969000002238	2	49	5804.067554	100	0.7571430999996664	1	0
472.8256434048417	0.798957	2	49	5804.94527	87.5	0.8348627999994278	2	0
473.62460040484166	0.8003184999997757	2	49	5805.613359	93.75	0.7039943999998286	1	0
474.42491890484143	0.8000878000002558	2	49	5806.481602	93.75	0.771919	2	0
475.2250067048417	0.8010422999996081	2	49	5807.283358	100	0.7735874999998487	1	0
476.0260490048413	0.7994960000005449	1	0	0	0	0	0	0
476.82554500484184	0.7995924999995623	2	49	5809.049393	75	0.9390840999994907	2	0
477.6251375048414	0.7990140000001702	2	49	5809.657415	100	0.7475137999999788	1	0
478.4241515048416	0.8003037999997105	2	49	5810.404642	93.75	0.6957264000002397	1	0
479.2244553048413	0.8005920000005062	1	49	5811.288284	93.75	0.7790648000000147	2	0
480.0250473048418	0.7985836999996536	2	49	5812.022567	93.75	0.7127554999997301	1	0
480.82363100484145	0.7984593000001041	2	49	5812.881494	93.75	0.7730988000002981	2	0
481.62209030484155	0.7994048999998995	1	0	0	0	0	0	0
482.42149520484145	0.7993224000001646	2	49	5814.505886	93.75	0.7996270000003278	2	0
483.2208176048416	0.7974332	2	49	5815.330629	87.5	0.8250473999996757	2	0
484.01825080484105	0.8003680000001623	2	49	5816.235584	75	0.9325690000005125	2	0
484.8186188048412	0.7996191	2	49	5817.329739	37.5	1.2263563000005888	2	0
485.6182379048414	0.7997234000004028	1	0	0	0	0	0	0
486.4179613048418	0.7991054	2	49	5818.517885	93.75	0.8151598999993439	2	0
487.2170667048413	0.7991976000002978	2	49	5819.403595	81.25	0.9017636999997194	2	0
488.01626430484157	0.7996363	1	0	0	0	0	0	0
488.8159006048418	0.7984812999993665	2	49	5820.775995	93.75	0.6753300999998828	1	0
489.61438190484114	0.7999471000002814	2	49	5821.66288	100	0.7637343000005785	1	0
490.4143290048414	0.8004233999999997	2	49	5822.594794	81.25	0.8957012000000759	2	0
491.2147524048414	0.8005886000000828	2	0	0	0	0	0	0
492.0153410048415	0.7979243999998289	2	49	5823.940101	87.5	0.6399958000001789	1	0
492.81326540484133	0.7992641000000731	2	49	5824.68608	81.25	0.5880503999997018	1	0
493.6125295048414	0.7996026999999231	1	49	5825.54091	87.5	0.6436166000003141	1	0
494.4121322048413	0.7984542000003785	2	49	5826.366565	93.75	0.6696684	1	0
495.2105864048417	0.7983618999996906	2	49	5827.224038	100	0.7286874000001262	1	0
496.0089483048414	0.7999157000003834	2	49	5828.021131	100	0.7274183999998058	1	0
496.8088640048418	0.801062	2	49	5828.810038	93.75	0.7164101999997001	1	0
497.6099260048413	0.7989053	1	0	0	0	0	0	0
498.40883130484144	0.7989729000000807	1	49	5830.336293	87.5	0.6426977999999508	1	0
499.2078042048415	0.7986638000002131	2	49	5831.135095	87.5	0.6425269000001208	1	0
500.00646800484174	0.7997114999998303	2	49	5831.984187	93.75	0.6929543999995076	1	0
500.80617950484157	0.7986504000000423	2	49	5832.961528	81.25	0.8705842999997913	2	0
501.6048299048416	0.8014164999995046	2	49	5833.702636	93.75	0.8130414999995992	2	0
502.4062464048411	0.8003702000005433	2	49	5834.442505	100	0.7514944000004107	1	0
503.20661660484166	0.8002717999997913	2	49	5835.275272	93.75	0.7838916999999128	2	0
504.00688840484145	0.7995766000003641	2	49	5836.175269	81.25	0.8836164000003919	2	0
504.8064650048418	0.8004514999993262	2	49	5836.917329	87.5	0.8261002	2	0
505.60691650484114	0.7998149	2	49	5837.756272	87.5	0.8645913999998811	2	0
506.4067314048416	0.7991536999998061	2	49	5838.437372	100	0.7458766999998261	1	0
507.2058851048414	n/a	0	0	0	0	0	0	0