onset	duration	cue	constant1	timestamp	stimulus_coherence	response_time	response	constant2
20.479374557733536	0.8189636999741197	2	49	2420566.302	68.75	1.033602500334382	2	0
21.298338257707655	0.8110867999494076	2	49	2420566.647	75	0.5601229001767933	1	0
22.109425057657063	0.8157638004049659	2	49	2420567.63	93.75	0.7320600003004074	1	0
22.92518885806203	0.8234011000022292	2	49	2420568.532	93.75	0.8183454000391066	2	0
23.748589958064258	0.8185743996873498	2	49	2420569.558	68.75	1.021159399766475	2	0
24.567164357751608	0.8193558999337256	2	49	2420570.343	75	0.9873068002052605	2	0
25.386520257685333	0.8323026	2	49	2420570.822	81.25	0.6471227002330124	1	0
26.218822857830673	0.8288306999020278	2	49	2420571.832	93.75	0.8240676000714302	2	0
27.04765356	0.8260683999396861	2	49	2420572.603	100	0.7663648999296129	1	0
27.873721957672387	0.8254332	2	49	2420573.483	93.75	0.8209633002988994	2	0
28.69915515789762	0.8125068000517786	2	49	2420574.605	56.25	1.1175898998044431	2	0
29.51166196	0.8188971998170018	2	49	2420575.408	56.25	1.108026099856943	2	0
30.33055916	0.8348097000271082	1	49	2420575.805	87.5	0.6854067998938262	1	0
31.16536885779351	0.8335164999589324	2	49	2420576.594	81.25	0.6395979998633265	1	0
31.998885357752442	0.8181668999604881	2	49	2420577.39	81.25	0.6029489999637008	1	0
32.81705225771293	0.8074461999349296	2	49	2420578.212	81.25	0.6060021002776921	1	0
33.62449845764786	0.8167691002599895	2	49	2420579.008	81.25	0.5952763	1	0
34.44126755790785	0.8103549997322261	2	49	2420579.722	68.75	0.4916328997351229	1	0
35.251622557640076	0.8278128001838923	1	49	2420580.494	62.5	0.4536510002799332	1	0
36.07943535782397	0.8167036999948323	2	49	2420581.431	75	0.5628002998419106	1	0
36.89613906	0.8198668002150953	2	49	2420582.214	68.75	0.5292119001969695	1	0
37.716005858033895	0.8227204997092485	2	49	2420583.146	81.25	0.6408795998431742	1	0
38.538726357743144	0.8291529999114573	2	49	2420584.058	93.75	0.7303289002738893	1	0
39.36787936	0.8157537002116442	2	49	2420584.788	81.25	0.6311557004228234	1	0
40.183633057866246	0.8248259001411498	2	49	2420585.693	93.75	0.7204991998150945	1	0
41.008458958007395	0.8197621996514499	2	49	2420586.859	62.5	1.0618964997120202	2	0
41.828221157658845	0.8137904000468552	2	49	2420587.297	87.5	0.6800718000158668	1	0
42.64201156	0.8172887000255287	2	49	2420588.215	100	0.7842922	1	0
43.45930025773123	0.8166632000356913	2	49	2420588.97	93.75	0.7223445000126958	1	0
44.27596345776692	0.825221	2	49	2420589.97	81.25	0.9052431001327932	2	0
45.10118445800617	0.8215059000067413	2	49	2420590.71	93.75	0.8200425999239087	2	0
45.922690358012915	0.8256589998491108	2	49	2420591.483	100	0.7715706997551024	1	0
46.748349357862025	0.8222985002212226	2	49	2420592.155	81.25	0.6180329998023808	1	0
47.57064785808325	0.8136113998480141	1	0	0	0	0	0	0
48.38425925793126	0.8156817001290619	2	49	2420593.909	100	0.7361237998120487	1	0
49.199940958060324	0.8164535998366773	2	49	2420595.051	62.5	1.0624631997197866	2	0
50.01639456	0.8265889999456704	2	49	2420595.629	93.75	0.8243152000941336	2	0
50.84298355784267	0.8153409	2	49	2420596.238	81.25	0.6064348	1	0
51.65832445770502	0.8231786000542343	2	49	2420597.187	93.75	0.7401315001770854	1	0
52.481503057759255	0.8194411001168191	2	49	2420597.867	81.25	0.5970661002211273	1	0
53.300944157876074	0.8137519001029432	2	49	2420598.508	56.25	0.4181662001647055	1	0
54.11469605797902	0.8196763996966183	2	49	2420599.274	50	0.37074279971420765	1	0
54.934372457675636	0.8214513002894819	2	49	2420600.496	100	0.7726066000759602	1	0
55.75582375796512	0.8243661997839808	1	49	2420601.073	68.75	0.5286983	1	0
56.58018996	0.8156682001426816	2	49	2420602.003	87.5	0.6346387001685798	1	0
57.39585815789178	0.8212465001270175	2	49	2420602.764	75	0.5798026998527348	1	0
58.21710466	0.8231041999533772	2	49	2420603.683	87.5	0.6775206	1	0
59.040208857972175	0.8201739997602999	2	49	2420604.398	75	0.5694045000709593	1	0
59.860382857732475	0.8122497000731528	2	49	2420605.169	68.75	0.5196604002267122	1	0
60.67263255780563	0.8184434999711812	2	49	2420606.059	81.25	0.5981886000372469	1	0
61.49107605777681	0.8109939000569284	2	49	2420606.861	81.25	0.5817332002334297	1	0
62.30206995783374	0.8207024000585079	2	49	2420607.684	81.25	0.5936577999964356	1	0
63.122772357892245	0.8210959997959435	2	49	2420608.992	62.5	1.080248899757862	2	0
63.94386835768819	0.8146656001918018	1	0	0	0	0	0	0
64.75853395787999	0.8158146999776363	2	49	2420610.034	68.75	0.4864598	1	0
65.57434865785763	0.8187644	2	49	2420610.904	75	0.5415240000002086	1	0
66.39311305806041	0.8204174996353686	2	49	2420612.224	68.75	1.0419232998974621	2	0
67.21353055769578	0.8159485999494791	2	49	2420612.76	100	0.7574377004057169	1	0
68.02947915764526	0.8186678001657128	2	49	2420613.549	93.75	0.7307616001926363	1	0
68.84814695781097	0.8118928000330925	2	49	2420614.275	87.5	0.6378573002293706	1	0
69.66003975784406	0.8270247001200914	2	49	2420615.166	93.75	0.7169233998283744	1	0
70.48706445796415	0.8405741997994483	2	49	2420616.126	93.75	0.8499533999711275	2	0
71.32763866	0.8391836	2	49	2420616.805	87.5	0.6889406000263989	1	0
72.16682225791737	0.8471063	2	49	2420617.85	87.5	0.8943909998051822	2	0
73.01392855774611	0.8378333002328873	2	49	2420618.731	81.25	0.9281943002715707	2	0
73.85176186	0.8380948998965323	2	49	2420619.451	93.75	0.8103632000274956	2	0
74.68985675787553	0.8481404	2	49	2420620.564	62.5	1.0855883001349866	2	0
75.53799715777859	0.8389615002088249	2	49	2420621.076	93.75	0.7494093	1	0
76.37695865798742	0.8376488001085818	2	49	2420621.798	81.25	0.6322343996725976	1	0
77.21460746	0.8119217995554209	2	49	2420622.732	93.75	0.7287645996548235	1	0
78.02652925765142	0.8295019003562629	2	49	2420623.548	93.75	0.7329787001945078	1	0
78.85603115800768	0.8380386000499129	2	49	2420624.234	75	0.5892803999595344	1	0
79.69406976	0.8163332999683917	2	49	2420624.92	62.5	0.4372183997184038	1	0
80.51040305802599	0.8210527999326587	2	49	2420625.96	87.5	0.6613415000028908	1	0
81.33145585795864	0.8140096999704838	2	49	2420626.716	81.25	0.5959795000962913	1	0
82.14546555792913	0.811517	2	49	2420627.561	87.5	0.6272605	1	0
82.95698255766183	0.8234472000040114	2	49	2420628.292	75	0.5465378002263606	1	0
83.78042975766584	0.8114940002560616	2	49	2420629.116	75	0.5471978	1	0
84.59192376	0.8256522999145091	2	49	2420629.945	75	0.5640917997807264	1	0
85.41757605783641	0.815504	2	49	2420630.572	50	0.3661365	1	0
86.23308005789295	0.8166033001616597	2	49	2420631.344	43.75	0.3225345998071134	1	0
87.04968335805461	0.8250520997680724	2	49	2420632.846	68.75	1.008017299696803	2	0
87.87473545782268	0.8297510002739727	2	49	2420633.592	81.25	0.9284518999047577	2	0
88.70448645809665	0.8227293998934329	2	49	2420634.167	87.5	0.6743822	1	0
89.52721585799009	0.8191680000163615	2	49	2420635.15	93.75	0.8344366997480392	2	0
90.34638385800645	0.8316744999028742	2	49	2420635.854	93.75	0.7192946998402476	1	0
91.17805835790932	0.8162461998872459	2	49	2420636.451	68.75	0.4846132998354733	1	0
91.99430455779657	0.8185103	2	49	2420637.78	68.75	0.9975483999587595	2	0
92.81281485781074	0.8152001998387277	2	49	2420638.784	50	1.1823134999722242	2	0
93.62801505764946	0.8214935003779829	2	49	2420639.196	100	0.7791404002346098	1	0
94.44950855802745	0.8169974996708333	2	49	2420640.096	87.5	0.8578228000551462	2	0
95.26650605769828	0.8188531999476254	2	49	2420640.688	81.25	0.6323835	1	0
96.08535926	0.8168171001598239	2	49	2420641.564	93.75	0.6895264000631869	1	0
96.90217635780573	0.8202900001779199	2	49	2420642.182	68.75	0.49077560007572174	1	0
97.72246635798365	0.8226518998853862	1	49	2420642.825	43.75	0.3136473996564746	1	0
98.54511825786904	0.8208630001172423	2	49	2420643.931	81.25	0.5968693001195788	1	0
99.36598125798628	0.8206555997021496	2	49	2420644.798	87.5	0.6430917996913195	1	0
100.18663685768843	0.8156479001045227	2	49	2420645.614	87.5	0.6387077001854777	1	0
101.00228475779295	0.8239343999885023	2	49	2420646.402	81.25	0.6109207002446055	1	0
101.82621915778145	0.8257801001891494	2	49	2420647.069	62.5	0.4539405000396073	1	0
102.6519992579706	0.8237558999098837	1	49	2420648.073	81.25	0.6321233999915421	1	0
103.47575515788049	0.8218053001910448	1	49	2420649.122	87.5	0.8574334997683764	2	0
104.29756045807153	0.8110570996068418	2	49	2420650.186	56.25	1.0995980999432504	2	0
105.10861755767837	0.8239914001896977	2	49	2420650.79	87.5	0.8926244000904262	2	0
105.93260895786807	0.8282023998908699	2	49	2420651.377	87.5	0.6556095001287758	1	0
106.76081135775894	0.8229256002232432	2	49	2420652.255	93.75	0.7057306999340653	1	0
107.58373695798218	0.8185299998149276	2	49	2420653.008	87.5	0.6355106998234987	1	0
108.40226695779711	0.824064	2	49	2420653.835	81.25	0.6441208999603987	1	0
109.22633095784113	0.8135532001033425	2	49	2420654.587	75	0.5722516002133489	1	0
110.03988415794447	0.8138870000839233	1	49	2420655.56	93.75	0.7315062996931374	1	0
110.8537711580284	0.8155413996428251	1	0	0	0	0	0	0
111.66931255767122	0.8163866000249982	2	49	2420657.385	81.25	0.9272774001583457	2	0
112.48569915769622	0.8157240003347397	1	49	2420657.938	87.5	0.6637591002508998	1	0
113.30142315803096	0.8132362999022007	2	49	2420659.137	62.5	1.0469641997478902	2	0
114.11465945793316	0.8237415999174118	2	49	2420659.914	68.75	1.0108354999683797	2	0
114.93840105785057	0.8283279999159276	2	49	2420660.616	87.5	0.8894301000982523	2	0
115.7667290577665	0.8185149999335408	2	49	2420661.305	100	0.7497566998936236	1	0
116.58524405770004	0.8113335999660194	2	0	0	0	0	0	0
117.39657765766606	0.8106413003988564	2	49	2420662.649	62.5	0.46331070037558675	1	0
118.20721895806491	0.8184108999557793	2	49	2420663.655	87.5	0.6589225996285677	1	0
119.0256298580207	0.8312887996435165	2	49	2420664.704	87.5	0.8901700000278652	2	0
119.85691865766421	0.8154772003181279	2	49	2420665.372	93.75	0.7268145000562072	1	0
120.67239585798234	0.8135719	2	49	2420666.241	100	0.7794885998591781	1	0
121.4859678	0.8190262001007795	2	49	2420667.144	87.5	0.8689765	2	0
122.30499395774677	0.8202722002752125	2	49	2420667.951	87.5	0.8573929001577199	2	0
123.12526615802199	0.8173106997273862	2	49	2420668.867	75	0.9531630999408662	2	0
123.94257685774937	0.8139555002562702	2	49	2420669.782	62.5	1.051272100303322	2	0
124.75653235800564	0.8114831997081637	1	0	0	0	0	0	0
125.5680155577138	0.8185185003094375	2	49	2420671.212	87.5	0.8553780000656843	2	0
126.38653405802324	0.8256981996819377	2	49	2420672.235	62.5	1.0603212998248637	2	0
127.21223225770518	0.8267487999983132	2	0	0	0	0	0	0
128.0389810577035	0.8166213999502361	2	49	2420673.359	75	0.5318943001329899	1	0
128.85560245765373	0.8183222003281116	2	49	2420674.621	75	0.9766721003688872	2	0
129.67392465798184	0.8139380998909473	2	49	2420675.317	87.5	0.8540650000795722	2	0
130.4878627578728	0.8278100998140872	2	49	2420676.398	56.25	1.121288400143385	2	0
131.31567285768688	0.8114426000975072	2	49	2420677.285	50	1.180283300112933	2	0
132.12711545778438	0.8236348000355065	2	49	2420678.075	50	1.158934900071472	2	0
132.9507502578199	0.8260876000858843	2	49	2420679.037	37.5	1.2981031001545489	2	0
133.77683785790578	0.8199754999950528	2	49	2420679.563	68.75	0.9974905	2	0
134.59681335790083	0.8173115998506546	2	0	0	0	0	0	0
135.41412495775148	0.8168790000490844	2	49	2420680.819	81.25	0.6163395000621676	1	0
136.23100395780057	0.8135390002280474	2	49	2420681.626	81.25	0.6064599002711475	1	0
137.04454295802861	0.8196406997740269	2	49	2420682.545	93.75	0.7116237999871373	1	0
137.86418365780264	0.8178039998747408	2	49	2420683.251	81.25	0.5983430002816021	1	0
138.68198765767738	0.8158987001515925	2	49	2420684.069	81.25	0.5985232000239193	1	0
139.49788635782897	0.8220084998756647	1	49	2420685.053	100	0.7665003002621233	1	0
140.31989485770464	0.8273832001723349	2	49	2420686.016	81.25	0.9074541	2	0
141.14727805787697	0.8216423001140356	2	49	2420686.942	68.75	1.0061710998415947	2	0
141.9689204	0.8153599998913705	2	0	0	0	0	0	0
142.78428035788238	0.8346677999943495	2	49	2420688.148	75	0.5752057	1	0
143.61894815787673	0.8150674998760223	2	49	2420689.094	93.75	0.6864272998645902	1	0
144.43401565775275	0.8286851001903415	2	0	0	0	0	0	0
145.2627007579431	0.8235181998461485	2	49	2420690.502	62.5	0.45033419970422983	1	0
146.08621895778924	0.8174562002532184	2	49	2420691.185	43.75	0.3103156	1	0
146.90367515804246	0.8206919999793172	2	49	2420692.24	75	0.5481707998551428	1	0
147.72436715802178	0.8102106996811926	1	49	2420693.257	100	0.7441952000372112	1	0
148.53457785770297	0.8160597002133727	2	0	0	0	0	0	0
149.35063755791634	0.8149192999117076	2	0	0	0	0	0	0
150.16555685782805	0.8182536	2	49	2420695.767	93.75	0.8124434002675116	2	0
150.98381045786664	0.8220780999399722	2	49	2420696.286	68.75	0.5139121999964118	1	0
151.8058885578066	0.8188423998653889	2	49	2420696.921	43.75	0.3267600000835955	1	0
152.624731	0.8199535002931952	2	49	2420697.824	56.25	0.41038390016183257	1	0
153.4446844579652	0.8226195001043379	2	49	2420698.602	50	0.3682742998935282	1	0
154.26730395806953	0.8250603997148573	2	49	2420699.561	68.75	0.5054643996991217	1	0
155.0923643577844	0.8082830999046564	2	49	2420700.425	75	0.5435640001669526	1	0
155.90064745768905	0.8210157002322376	2	49	2420701.253	75	0.5636277003213763	1	0
156.72166315792128	0.8145412001758814	2	49	2420702.239	93.75	0.7284192000515759	1	0
157.53620435809717	0.8316003996878862	2	49	2420703.063	93.75	0.7386289997957647	1	0
158.36780475778505	0.8365918002091348	2	49	2420703.976	93.75	0.8200495	2	0
159.2043965579942	0.8195436000823975	2	49	2420704.688	87.5	0.6946990001015365	1	0
160.02394015807658	0.8242230997420847	2	49	2420705.52	93.75	0.7071562996134162	1	0
160.84816325781867	0.8199636000208557	2	49	2420706.254	81.25	0.6168530001305044	1	0
161.66812685783952	0.8210415001958609	2	49	2420706.963	68.75	0.5062283999286592	1	0
162.48916835803539	0.8147886996157467	2	49	2420707.861	81.25	0.5828080996870995	1	0
163.30395705765113	0.8075983002781868	2	49	2420708.531	62.5	0.43870090041309595	1	0
164.11155535792932	0.8220675000920892	2	49	2420709.474	75	0.5741928997449577	1	0
164.9336228580214	0.8160738996230066	1	49	2420710.299	75	0.5765072000212967	1	0
165.74969675764441	0.8242885	2	49	2420711.285	100	0.7464198004454374	1	0
166.57398525765166	0.8140145000070333	2	49	2420712.172	93.75	0.8092546002008021	2	0
167.3879997576587	0.8204936003312469	2	49	2420712.964	100	0.7875098004005849	1	0
168.20849335798994	0.8136947997845709	1	49	2420713.629	87.5	0.6320202997885644	1	0
169.0221881577745	0.8184267	2	49	2420714.745	81.25	0.9342427002266049	2	0
169.84061485808343	0.8175122998654842	2	0	0	0	0	0	0
170.6581271579489	0.8170230998657644	2	49	2420715.963	68.75	0.5162593997083604	1	0
171.47515025781468	0.8187926998361945	2	49	2420717.018	100	0.7541598002426326	1	0
172.29394295765087	0.8218563999980688	2	49	2420717.772	87.5	0.6893221000209451	1	0
173.11579935764894	0.8222954	2	49	2420718.802	81.25	0.8974256003275514	2	0
173.93809475796297	0.8183856001123786	2	49	2420719.699	75	0.9724073000252247	2	0
174.75648035807535	0.8203877997584641	2	49	2420720.683	56.25	1.1381616997532547	2	0
175.57686815783381	0.8192884000018239	2	49	2420721.549	50	1.1838122000917792	2	0
176.39615655783564	0.8178886999376118	2	0	0	0	0	0	0
177.21404525777325	0.8209494999609888	1	49	2420722.6	81.25	0.5975212003104389	1	0
178.03499475773424	0.8220391003414989	2	0	0	0	0	0	0
178.85703385807574	0.8256407999433577	2	49	2420724.143	68.75	0.4977237996645272	1	0
179.6826746580191	0.8217047997750342	2	49	2420724.763	43.75	0.2920091999694705	1	0
180.50437945779413	0.8179681999608874	2	49	2420725.653	50	0.3603012999519706	1	0
181.32234765775502	0.8264172999188304	2	49	2420726.916	93.75	0.8051975001581013	2	0
182.14876495767385	0.8173334002494812	2	49	2420728.024	62.5	1.0869760001078248	2	0
182.96609835792333	0.8233278999105096	2	49	2420728.718	75	0.9632445997558534	2	0
183.78942625783384	0.8208881998434663	2	49	2420729.451	87.5	0.8733407999388874	2	0
184.6103144576773	0.8134637	2	49	2420730.491	56.25	1.091750900261104	2	0
185.42377815768123	0.8160117003135383	2	49	2420731.235	68.75	1.0221548001281917	2	0
186.23978985799477	0.8212509	2	49	2420732.053	68.75	1.0244403998367488	2	0
187.06104075768963	0.8232051003724337	2	49	2420732.952	56.25	1.101984000299126	2	0
187.88424585806206	0.8196383998729289	2	49	2420733.66	75	0.9868900999426842	2	0
188.7038843	0.8212113999761641	2	49	2420734.557	62.5	1.0649439999833703	2	0
189.52509565791115	0.8145131999626756	2	49	2420735.367	62.5	1.0533357998356223	2	0
190.33960885787383	0.8152211	2	49	2420736.072	75	0.9442529999651015	2	0
191.1548299579881	0.8106128997169435	2	49	2420736.725	93.75	0.7812851998023689	2	0
191.96544285770506	0.8190308003686368	2	49	2420737.415	87.5	0.6605410003103316	1	0
192.7844736580737	0.8167393	2	49	2420738.413	87.5	0.8403877997770905	2	0
193.60121295787394	0.8166363998316228	2	49	2420739.038	87.5	0.6479091998189688	1	0
194.41784935770556	0.8196626999415457	2	49	2420739.755	75	0.5487995999865234	1	0
195.2375120576471	0.8282218002714217	2	49	2420741.003	75	0.9771917001344264	2	0
196.06573385791853	0.8241179999895394	2	49	2420741.61	100	0.7554311999119818	1	0
196.88985185790807	0.8257045	2	49	2420742.536	87.5	0.8573175999335945	2	0
197.71555635798723	0.8177968999370933	2	49	2420743.436	81.25	0.9315112000331283	2	0
198.53335325792432	0.8185674	2	49	2420744.144	93.75	0.8218845999799669	2	0
199.3519206577912	0.8234040001407266	2	49	2420745.014	87.5	0.8734049000777304	2	0
200.17532465793192	0.8249530997127295	2	49	2420745.928	75	0.9639883	2	0
201.00027775764465	0.8117955001071095	2	49	2420746.853	62.5	1.0640215002931654	2	0
201.81207325775176	0.8221014002338052	2	49	2420747.569	75	0.9681234	2	0
202.63417465798557	0.8185443999245763	2	49	2420748.501	62.5	1.0782372998073697	2	0
203.45271905791014	0.8170851999893785	2	49	2420749.141	81.25	0.8996490999124944	2	0
204.26980425789952	0.8231874997727573	2	49	2420750.225	50	1.1661232998594642	2	0
205.09299175767228	0.8184382002800703	2	0	0	0	0	0	0
205.91142995795235	0.8168286001309752	2	49	2420751.467	100	0.7673283996991813	1	0
206.72825855808333	0.8117833998985589	2	49	2420752.619	56.25	1.1017193999141455	2	0
207.54004195798188	0.8227210999466479	2	49	2420753.243	81.25	0.9140290999785066	2	0
208.36276305792853	0.8165433001704514	1	0	0	0	0	0	0
209.17930635809898	0.8226303998380899	2	49	2420754.634	87.5	0.6664461996406317	1	0
210.00193675793707	0.8160219001583755	1	0	0	0	0	0	0
210.81795865809545	0.8203759	2	49	2420756.263	87.5	0.6566	1	0
211.63833455787972	0.8281256	2	49	2420757.271	93.75	0.8443963001482189	2	0
212.46646015765145	0.8227531001903117	2	49	2420758.14	87.5	0.8846382000483572	2	0
213.28921325784177	0.8224288998171687	2	49	2420759.21	56.25	1.1326585998758674	2	0
214.11164215765893	0.8176845000125468	2	49	2420759.901	68.75	1.0010196003131568	2	0
214.92932665767148	0.8227244	1	49	2420760.619	81.25	0.9015517001971602	2	0
215.75205105775967	0.8284285003319383	2	49	2420761.634	62.5	1.0935674998909235	2	0
216.5804795580916	0.8201130996458232	2	49	2420762.433	62.5	1.0642852997407317	2	0
217.40059265773743	0.8279739003628492	2	49	2420762.967	100	0.7774216001853347	1	0
218.22856655810028	0.8337438995949924	2	49	2420764.042	68.75	1.0243317997083068	2	0
219.06231045769528	0.8265605000779033	2	0	0	0	0	0	0
219.88887095777318	0.8396018003113568	2	49	2420765.141	62.5	0.4632232002913952	1	0
220.72847275808454	0.8375225998461246	2	49	2420766.039	68.75	0.5214228997938335	1	0
221.56599535793066	0.8356532	2	49	2420766.848	68.75	0.4938460998237133	1	0
222.40164855774492	0.8386337	1	49	2420767.729	68.75	0.5383484000340104	1	0
223.24028225801885	0.8367306999862194	1	0	0	0	0	0	0
224.07701295800507	0.8399557000957429	2	49	2420769.462	75	0.5959675996564329	1	0
224.9169686581008	0.8371794996783137	2	49	2420770.858	56.25	1.1520819999277592	2	0
225.75414815777913	0.8375278	2	49	2420771.756	50	1.2129417001269758	2	0
226.59167595766485	0.8362236004322767	2	49	2420772.805	25	1.4247249001637101	2	0
227.42789955809712	0.8354767998680472	1	0	0	0	0	0	0
228.26337635796517	0.8376179998740554	2	0	0	0	0	0	0
229.10099435783923	0.8366542998701334	2	49	2420774.629	93.75	0.7392031000927091	1	0
229.93764865770936	0.8358172001317143	2	49	2420775.929	50	1.2023988999426365	2	0
230.77346585784107	0.8362166997976601	2	49	2420776.756	50	1.1938308998942375	2	0
231.60968255763873	0.8365233	2	0	0	0	0	0	0
232.44620585767552	0.8376879002898932	2	49	2420777.708	62.5	0.4731533001177013	1	0
233.28389375796542	0.8375840000808239	2	49	2420778.713	81.25	0.6403183997608721	1	0
234.12147775804624	0.8365592998452485	2	49	2420779.491	75	0.5808057999238372	1	0
234.9580370578915	0.8366621998138726	2	49	2420780.845	62.5	1.0983009999617934	2	0
235.79469925770536	0.8368510003201663	2	49	2420781.612	68.75	1.0287536000832915	2	0
236.63155025802553	0.8408176996745169	2	49	2420782.58	56.25	1.1598376999609172	2	0
237.47236795770004	0.8416868	2	49	2420783.158	87.5	0.8972618002444506	2	0
238.3140547578223	0.8205844000913203	2	49	2420784.081	75	0.9783335002139211	2	0
239.13463915791363	0.8179088998585939	2	49	2420784.942	68.75	1.0186263998039067	2	0
239.95254805777222	0.8221372999250889	2	49	2420785.6	87.5	0.8590147001668811	2	0
240.7746853576973	0.821427	2	49	2420786.446	87.5	0.8827857002615929	2	0
241.59611235791817	0.8181658997200429	2	49	2420787.48	56.25	1.095413699746132	2	0
242.41427825763822	0.8199183000251651	2	0	0	0	0	0	0
243.23419655766338	0.8135477001778781	2	49	2420788.659	87.5	0.6365098999813199	1	0
244.04774425784126	0.8210988999344409	2	49	2420789.403	75	0.5669261999428272	1	0
244.8688431577757	0.8205257002264261	1	49	2420790.226	75	0.5687616001814604	1	0
245.68936885800213	0.8196650999598205	2	49	2420791.246	100	0.7682354999706149	1	0
246.50903395796195	0.8180991997942328	2	0	0	0	0	0	0
247.32713315775618	0.8153662	2	49	2420793.11	68.75	0.9947408000007272	2	0
248.1424993579276	0.8195274998433888	2	0	0	0	0	0	0
248.96202685777098	0.8132714000530541	1	0	0	0	0	0	0
249.77529825782403	0.8133260998874903	2	0	0	0	0	0	0
250.58862435771152	0.8190510999411345	1	0	0	0	0	0	0
251.40767545765266	0.8144593	2	0	0	0	0	0	0
252.2221348	0.8309380998834968	2	49	2420798.131	56.25	1.1198640000075102	2	0
253.0530728576705	0.8280237000435591	2	49	2420798.68	93.75	0.8380319001153111	2	0
253.88109655771405	0.8336412003263831	2	49	2420799.678	68.75	1.0079624000936747	2	0
254.71473775804043	0.8138669999316335	2	49	2420800.351	87.5	0.8472324996255338	2	0
255.52860475797206	0.8173255999572575	2	49	2420801.259	81.25	0.9414329999126494	2	0
256.3459303579293	0.8234552997164428	1	0	0	0	0	0	0
257.16938565764576	0.8147640000097454	2	49	2420802.476	68.75	0.5177461002022028	1	0
257.9841496576555	0.8152927001938224	2	49	2420803.461	93.75	0.6880314000882208	1	0
258.79944235784933	0.8143478999845684	1	49	2420804.388	93.75	0.7997192000038922	2	0
259.6137902578339	0.8126038000918925	2	49	2420805.179	100	0.7765969000756741	1	0
260.4263940579258	0.8218176001682878	1	49	2420806.187	75	0.9720032997429371	2	0
261.2482116580941	0.8182690995745361	2	0	0	0	0	0	0
262.0664807576686	0.8211864000186324	2	0	0	0	0	0	0
262.88766715768725	0.8121972000226378	2	49	2420808.36	93.75	0.6834874004125595	1	0
263.6998643577099	0.8176938001997769	2	49	2420809.689	43.75	1.2003997000865638	2	0
264.51755815790966	0.818595	2	49	2420810.359	62.5	1.0528409001417458	2	0
265.3361531579867	0.8217925000935793	2	0	0	0	0	0	0
266.1579456580803	0.8211365998722613	2	49	2420811.927	75	0.9803214999847114	2	0
266.97908225795254	0.8186130998656154	2	49	2420812.536	100	0.7685553999617696	1	0
267.79769535781816	0.8120225998573005	2	49	2420813.199	81.25	0.6129307998344302	1	0
268.60971795767546	0.8207446001470089	2	49	2420814.053	87.5	0.6544364001601934	1	0
269.43046255782247	0.8181145000271499	1	49	2420814.792	75	0.5731553002260625	1	0
270.2485770578496	0.8190175001509488	2	49	2420815.812	100	0.7748404000885785	1	0
271.06759455800056	0.8265975997783244	2	49	2420816.578	93.75	0.7219970999285579	1	0
271.8941921577789	0.8094242000952363	1	49	2420817.313	87.5	0.6303461999632418	1	0
272.7036163578741	0.8133229999803007	2	49	2420818.363	87.5	0.8710913001559675	2	0
273.5169393578544	0.8214643998071551	2	49	2420819.257	75	0.9517486998811364	2	0
274.3384037576616	0.8166361004114151	2	49	2420820.06	81.25	0.9324900000356138	2	0
275.1550399	0.8277278	2	49	2420820.996	68.75	1.0526602999307215	2	0
275.9827676578425	0.823724	2	49	2420821.877	56.25	1.105770600028336	2	0
276.80649165809155	0.8175466996617615	2	49	2420822.807	43.75	1.2114137997850776	2	0
277.6240383577533	0.8139733001589775	2	49	2420823.649	43.75	1.2366241002455354	2	0
278.4380116579123	0.8157043000683188	2	49	2420824.513	37.5	1.2868188000284135	2	0
279.2537159579806	0.8105764999054372	1	0	0	0	0	0	0
280.06429245788604	0.8181752	2	49	2420825.588	93.75	0.7349973	1	0
280.8824676577933	0.8202300001867115	2	49	2420826.332	87.5	0.6604553000070155	1	0
281.7026977	0.8142375000752509	2	49	2420827.487	68.75	0.9951963997446001	2	0
282.5169351580553	0.8237556996755302	2	49	2420828.358	62.5	1.0521581997163594	2	0
283.3406908577308	0.8223346001468599	2	49	2420829.165	68.75	1.0353407002985477	2	0
284.16302545787767	0.8236217	2	49	2420829.961	68.75	1.009025199804455	2	0
284.98664715792984	0.8198945000767708	2	49	2420830.648	87.5	0.8726340997964144	2	0
285.8065416580066	0.817886	2	49	2420831.355	100	0.7594161997549236	1	0
286.6244276580401	0.8272551000118256	2	49	2420832.158	93.75	0.7448943997733295	1	0
287.4516827580519	0.8178093	2	49	2420832.772	68.75	0.5314103998243809	1	0
288.2694920580834	0.8180566998198628	2	49	2420833.591	75	0.5330619998276234	1	0
289.0875487579033	0.8164594	2	49	2420834.967	62.5	1.090534099843353	2	0
289.90400815801695	0.8264700998552144	1	0	0	0	0	0	0
290.73047825787216	0.8166649998165667	2	49	2420836.178	87.5	0.6586440000683069	1	0
291.54714325768873	0.8261363999918103	2	49	2420837.002	87.5	0.6660783002153039	1	0
292.37327965768054	0.8165768003091216	1	49	2420837.8	87.5	0.6378898001275957	1	0
293.18985645798966	0.9703702	2	0	0	0	0	0	0
294.16022665798664	0.8261547000147402	2	49	2420839.643	87.5	0.6941455998457968	1	0
294.9863813580014	0.8141783000901341	2	49	2420840.467	93.75	0.6918052998371422	1	0
295.8005596580915	0.8206889997236431	2	49	2420841.441	87.5	0.8518416997976601	2	0
296.62124865781516	0.8162317001260817	2	49	2420842.166	100	0.7564444998279214	1	0
297.43748035794124	0.8231680998578668	2	49	2420842.939	93.75	0.7129103997722268	1	0
298.2606484577991	0.8276436002925038	2	49	2420843.71	87.5	0.6607840000651777	1	0
299.0882920580916	0.8140129996463656	2	49	2420844.567	93.75	0.6898060999810696	1	0
299.9023051	0.8161549000069499	2	49	2420845.355	87.5	0.6641982002183795	1	0
300.7184599577449	0.8118668	2	49	2420846.056	75	0.5490045002661645	1	0
301.5303267580457	0.8121919999830425	2	49	2420846.807	68.75	0.4878357998095453	1	0
302.34251875802875	0.8215721999295056	2	49	2420847.793	87.5	0.6622100998647511	1	0
303.16409095795825	0.8180971997790039	2	49	2420848.516	75	0.5635794997215271	1	0
303.98218815773726	0.8151855003088713	2	49	2420849.237	62.5	0.46642390033230186	1	0
304.7973736580461	0.8173055998049676	2	49	2420850.053	62.5	0.4673102996312082	1	0
305.6146792578511	0.8140203999355435	2	49	2420850.924	68.75	0.5211025001481175	1	0
306.42869965778664	0.8128684000112116	1	49	2420851.549	50	0.3319124	1	0
307.24156805779785	0.8162664999254048	2	0	0	0	0	0	0
308.05783455772325	0.8170318999327719	2	49	2420853.347	68.75	0.5000706999562681	1	0
308.8748665	0.8230805001221597	2	49	2420854.255	81.25	0.5911910003051162	1	0
309.6979469577782	0.8152175000868738	2	49	2420855.095	81.25	0.6082389000803232	1	0
310.51316445786506	0.8169860998168588	2	49	2420855.95	87.5	0.6486742999404669	1	0
311.3301505576819	0.8208707002922893	2	49	2420856.777	87.5	0.6578121003694832	1	0
312.1510212579742	0.8172627999447286	2	49	2420857.825	87.5	0.8853114997036755	2	0
312.96828405791894	0.8172881999053061	2	49	2420858.533	100	0.7758281999267638	1	0
313.78557225782424	0.8169749001972377	2	49	2420859.352	100	0.7776212999597192	1	0
314.6025471580215	0.8132180999964476	1	49	2420860.139	100	0.747506	1	0
315.4157652580179	0.8120275996625423	2	0	0	0	0	0	0
316.22779285768047	0.8225981001742184	2	49	2420861.666	87.5	0.6491739000193775	1	0
317.0503909578547	0.8211555001325905	1	0	0	0	0	0	0
317.8715464579873	0.8224537000060081	2	49	2420863.464	93.75	0.8035213998518884	2	0
318.6940001579933	0.8115224000066519	2	49	2420864.32	87.5	0.8371029999107122	2	0
319.50552255799994	0.8204401996918023	2	49	2420865.007	93.75	0.7131999996490777	1	0
320.32596275769174	0.8154927999712527	2	49	2420866.207	56.25	1.0924558001570404	2	0
321.1414556	0.8153913002461195	2	49	2420866.788	87.5	0.8576805000193417	2	0
321.9568468579091	0.8192111998796463	2	49	2420867.365	81.25	0.6193091999739408	1	0
322.77605805778876	0.8145781001076102	2	49	2420868.12	75	0.5549663999117911	1	0
323.59063615789637	0.8192452997900546	2	49	2420868.915	75	0.5356601001694798	1	0
324.4098814576864	0.8238979000598192	2	49	2420869.8	81.25	0.6014493000693619	1	0
325.23377935774624	0.8250488000921905	2	49	2420871.09	62.5	1.0678567001596093	2	0
326.05882815783843	0.8184779002331197	2	49	2420871.714	87.5	0.8666866002604365	2	0
326.87730605807155	0.8170842998661101	2	49	2420872.29	81.25	0.6242542997933924	1	0
327.69439035793766	0.8081209999509156	2	49	2420872.81	50	0.3271894999779761	1	0
328.5025113578886	0.8136732000857592	1	49	2420874.317	68.75	1.0258269999176264	2	0
329.31618455797434	0.8192245997488499	2	49	2420875.271	50	1.166204999666661	2	0
330.1354091577232	0.8197539001703262	2	49	2420875.994	62.5	1.0703346002846956	2	0
330.9551630578935	0.8160339999012649	2	49	2420876.716	75	0.9723157999105752	2	0
331.7711970577948	0.8123796000145376	2	49	2420877.462	81.25	0.9022514000535011	2	0
332.5835766578093	0.8137697000056505	2	49	2420878.363	68.75	0.9907172000966966	2	0
333.39734635781497	0.8148102001287043	2	49	2420878.888	93.75	0.7022547000087798	1	0
334.2121565579437	0.8220659	2	49	2420879.664	87.5	0.6628896999172866	1	0
335.0342224580236	0.8130639996379614	2	49	2420880.238	56.25	0.41484269965440035	1	0
335.84728645766154	0.8239506003446877	2	49	2420880.988	50	0.35242880042642355	1	0
336.6712370580062	0.8099940000101924	2	49	2420881.989	68.75	0.5293898000381887	1	0
337.4812310580164	0.8113347999751568	2	49	2420883.307	62.5	1.0373779996298254	2	0
338.2925658579916	0.8148515997454524	2	49	2420883.821	100	0.7400475000031292	1	0
339.10741745773703	0.8193232002668083	2	49	2420884.618	93.75	0.7224542000330985	1	0
339.92674065800384	0.8206134997308254	2	49	2420885.25	68.75	0.5350915999151766	1	0
340.74735415773466	0.8200882002711296	2	49	2420886.181	87.5	0.6446187002584338	1	0
341.5674423580058	0.8168349997140467	2	49	2420886.74	56.25	0.3835408999584615	1	0
342.38427735771984	0.8297548000700772	2	49	2420887.648	62.5	0.47542829997837543	1	0
343.2140321577899	0.8156743003055453	2	49	2420888.587	81.25	0.5847175000235438	1	0
344.02970645809546	0.8188047995790839	2	49	2420889.449	81.25	0.6304332995787263	1	0
344.84851125767455	0.8203986003063619	1	49	2420890.21	75	0.5730835003778338	1	0
345.6689098579809	0.8238478000275791	2	49	2420891.351	87.5	0.8930035000666976	2	0
346.4927576580085	0.8127274997532368	2	49	2420892.122	87.5	0.8401536	2	0
347.3054851577617	0.8205753001384437	2	49	2420892.752	87.5	0.6581179001368582	1	0
348.12606045790017	0.8211750998161733	2	49	2420893.499	81.25	0.5840130001306534	1	0
348.94723555771634	0.8240122003480792	2	49	2420894.34	81.25	0.6039086002856493	1	0
349.7712477580644	0.8217235999181867	2	49	2420894.953	56.25	0.3927503	1	0
350.5929713579826	0.8193167001008987	2	49	2420895.862	62.5	0.48024019971489906	1	0
351.4122880580835	0.8182252999395132	1	49	2420896.673	62.5	0.47193120000883937	1	0
352.2305134	0.8230260997079313	2	49	2420897.635	81.25	0.6154530998319387	1	0
353.05353945773095	0.8146427003666759	2	49	2420898.534	93.75	0.6916139000095427	1	0
353.8681821580976	0.8207455999217927	1	49	2420899.191	68.75	0.5340674999170005	1	0
354.6889277580194	0.8138597998768091	2	49	2420900.083	81.25	0.6057579000480473	1	0
355.5027875578962	0.8216873998753726	2	49	2420900.871	75	0.5794361000880599	1	0
356.3244749577716	0.8156357002444565	2	49	2420901.717	81.25	0.6039166	1	0
357.14011065801606	0.8228386	2	49	2420902.602	87.5	0.6729544997215271	1	0
357.96294925780967	0.8204871001653373	2	49	2420903.423	87.5	0.6712975	1	0
358.7834364	0.8174708997830749	2	49	2420904.112	75	0.5399567000567913	1	0
359.6009072577581	0.8211532002314925	2	49	2420905.008	81.25	0.6187581000849605	1	0
360.4220604579896	0.813298	1	49	2420905.853	87.5	0.6423378996551037	1	0
361.23535845801234	0.8090272997505963	2	49	2420906.907	81.25	0.8830675999633968	2	0
362.04438575776294	0.8163993000052869	2	49	2420907.719	87.5	0.8862668	2	0
362.8607850577682	0.8177424999885261	2	49	2420908.432	100	0.7826537000946701	1	0
363.67852755775675	0.8174697998911142	1	49	2420909.082	81.25	0.6150072999298573	1	0
364.49599735764787	0.8149268003180623	2	0	0	0	0	0	0
365.3109241579659	0.8197360998019576	2	49	2420910.555	62.5	0.4552640998736024	1	0
366.1306602577679	0.8172158002853394	2	49	2420911.319	56.25	0.3999854000285268	1	0
366.9478760580532	0.8196370997466147	2	49	2420912.14	56.25	0.4037146996706724	1	0
367.76751315779984	0.8138807001523674	1	49	2420913.024	62.5	0.4681680998764932	1	0
368.5813938579522	0.8144141999073327	2	49	2420914.281	81.25	0.9113575997762382	2	0
369.39580805785954	0.8120279000140727	2	49	2420914.889	93.75	0.7045859000645578	1	0
370.2078359578736	0.8147347001358867	2	49	2420915.767	100	0.7700576	1	0
371.0225706580095	0.8181658997200429	2	49	2420916.433	81.25	0.6219453997910023	1	0
371.84073655772954	0.8175298003479838	2	49	2420917.232	81.25	0.6030256003141403	1	0
372.6582663580775	0.8108628997579217	2	49	2420918.023	75	0.5765195996500552	1	0
373.46912925783545	0.8168203998357058	2	49	2420918.849	81.25	0.5909223002381623	1	0
374.28594965767115	0.8188079004175961	2	49	2420919.576	68.75	0.5018776003271341	1	0
375.10475755808875	0.8179107997566462	2	49	2420920.301	56.25	0.40772789996117353	1	0
375.9226683578454	0.8059497000649571	2	49	2420921.327	81.25	0.6161155002191663	1	0
376.72861805791035	0.8211576	2	49	2420922.004	68.75	0.48626699997112155	1	0
377.5497756577097	0.8161885002627969	2	49	2420922.83	68.75	0.49111209996044636	1	0
378.3659641579725	0.8168054	2	49	2420923.672	68.75	0.5171429999172688	1	0
379.1827695579268	0.8185235001146793	2	49	2420924.409	62.5	0.43740419996902347	1	0
380.0012930580415	0.8222598000429571	2	49	2420925.287	68.75	0.4967740997672081	1	0
380.82355285808444	0.8165981997735798	2	49	2420925.939	43.75	0.32675059977918863	1	0
381.6401511	0.8166737002320588	2	49	2420926.888	62.5	0.45907869981601834	1	0
382.4568247580901	0.8073270996101201	2	49	2420927.856	81.25	0.6101156999357045	1	0
383.2641518577002	0.8137925	2	49	2420928.586	75	0.5330779999494553	1	0
384.07794435787946	0.8121886001899838	1	49	2420929.465	81.25	0.5981960999779403	1	0
384.89013295806944	0.8250033999793231	2	49	2420930.704	68.75	1.025244299788028	2	0
385.71513635804877	0.8187686000019312	2	49	2420931.393	87.5	0.8890354000031948	2	0
386.5339049580507	0.8257342996075749	1	49	2420931.989	87.5	0.6664023	1	0
387.3596392576583	0.8166774003766477	2	49	2420933.055	81.25	0.9071953003294766	2	0
388.1763166580349	0.8198207998648286	2	49	2420934.087	56.25	1.121658599935472	2	0
388.99613745789975	0.8244811999611557	2	49	2420934.782	68.75	0.9972357000224292	2	0
389.8206186578609	0.8242683000862598	2	49	2420935.462	87.5	0.8525247001089156	2	0
390.64488695794716	0.8253033999353647	2	49	2420936.586	56.25	1.1525201997719705	2	0
391.47019035788253	0.8178427000530064	2	49	2420937.172	81.25	0.9133699000813067	2	0
392.28803305793554	0.8202692000195384	2	49	2420937.933	87.5	0.8562260000035167	2	0
393.1083022579551	0.8123272000811994	2	49	2420938.672	100	0.7752624996937811	1	0
393.9206294580363	0.8107620999217033	2	49	2420939.538	93.75	0.8287744000554085	2	0
394.7313916	0.8207119000144303	1	49	2420940.397	87.5	0.8770623998716474	2	0
395.5521034579724	0.8206088999286294	2	49	2420941.477	56.25	1.1367001999169588	2	0
396.37271235790104	0.8162253	2	49	2420942.4	43.75	1.2386794001795352	2	0
397.1889376579784	0.8385976999998093	2	0	0	0	0	0	0
398.0275353579782	0.8363270000554621	2	49	2420943.422	81.25	0.60601	1	0
398.86386235803366	0.8321881997399032	1	49	2420944.233	75	0.5807594	1	0
399.69605055777356	0.8150728000327945	2	49	2420945.198	93.75	0.7135836998932064	1	0
400.51112335780635	0.8311439999379218	2	49	2420946.283	75	0.9837038000114262	2	0
401.3422673577443	0.8205741001293063	2	49	2420947.015	87.5	0.8836600999347866	2	0
402.1628414578736	0.8161570001393557	2	49	2420947.906	75	0.9543773	2	0
402.97899845801294	0.8104478996247053	2	49	2420948.631	87.5	0.8630067999474704	2	0
403.78944635763764	0.8182541001588106	2	49	2420949.539	75	0.9608957003802061	2	0
404.60770045779645	0.8213478000834584	2	49	2420950.321	81.25	0.9250795999541879	2	0
405.4290482578799	0.8213948998600245	2	49	2420951.082	87.5	0.8641437999904156	2	0
406.25044315773994	0.8369805002585053	2	49	2420951.885	93.75	0.8456933000124991	2	0
407.08742365799844	0.8204350997693837	2	49	2420952.706	93.75	0.8295950996689498	2	0
407.9078587577678	0.8337095002643764	2	49	2420953.476	100	0.7799745001830161	1	0
408.7415682580322	0.8341141999699175	2	49	2420954.21	87.5	0.6793951997533441	1	0
409.5756824580021	0.8294552997685969	2	49	2420954.965	81.25	0.6011533997952938	1	0
410.4051377577707	0.8252572002820671	1	0	0	0	0	0	0
411.2303949580528	0.9253560998477042	2	49	2420956.723	81.25	0.7037738999351859	1	0
412.1557510579005	0.8391184997744858	2	49	2420957.676	93.75	0.7313354001380503	1	0
412.9948696	0.8373568002134562	2	49	2420958.679	87.5	0.8950801002793014	2	0
413.83222635788843	0.8388136001303792	1	49	2420959.409	100	0.7880056998692453	1	0
414.6710399580188	0.8409464997239411	2	49	2420960.288	93.75	0.8281880998983979	2	0
415.51198645774275	0.8315921002067626	2	49	2420960.868	75	0.5671148002147675	1	0
416.3435785579495	0.8367674	2	49	2420962.283	56.25	1.1505279997363687	2	0
417.18034595809877	0.8312694	2	0	0	0	0	0	0
418.0116153578274	0.8217842001467943	2	49	2420963.435	81.25	0.6350747998803854	1	0
418.8333995579742	0.8231655997224152	2	49	2420964.172	75	0.5504405996762216	1	0
419.6565651576966	0.8223569002002478	2	49	2420965.164	93.75	0.7185756000690162	1	0
420.47892205789685	0.8231585999019444	2	49	2420965.994	93.75	0.7266498	1	0
421.3020806577988	0.8175742	2	49	2420966.779	87.5	0.6881543002091348	1	0
422.1196548580192	0.8212766996584833	1	49	2420967.485	75	0.5767601998522878	1	0
422.9409315576777	0.8189918003045022	2	49	2420968.47	93.75	0.7404421	1	0
423.7599233579822	0.8274268000386655	2	49	2420969.195	87.5	0.6463740998879075	1	0
424.58735015802085	0.8201138000003994	2	49	2420969.901	68.75	0.5248670997098088	1	0
425.40746395802125	0.8181467	1	49	2420970.648	62.5	0.45219819992780685	1	0
426.22561065806076	0.8296699998900294	1	49	2420971.787	100	0.7730107996612787	1	0
427.0552806579508	0.8162265997380018	1	0	0	0	0	0	0
427.8715072576888	0.8309968002140522	2	49	2420973.708	68.75	1.0474666999652982	2	0
428.70250405790284	0.8291476001031697	2	0	0	0	0	0	0
429.5316517	0.8237872999161482	1	49	2420975.152	93.75	0.8319733999669552	2	0
430.35543895792216	0.8319342001341283	2	0	0	0	0	0	0
431.1873731580563	0.8242147997952998	2	49	2420977.18	50	1.204446999821812	2	0
432.0115879578516	0.8183133001439273	2	0	0	0	0	0	0
432.8299012579955	0.8235275000333786	2	49	2420978.466	87.5	0.8477324997074902	2	0
433.6534287580289	0.8193691000342369	2	49	2420979.576	56.25	1.1341478996910155	2	0
434.47279785806313	0.8196902996860445	2	0	0	0	0	0	0
435.2924881577492	0.8203435000032187	2	49	2420980.603	68.75	0.5218410002999008	1	0
436.1128316577524	0.8234041002579033	2	49	2420981.273	50	0.37112720031291246	1	0
436.9362357580103	0.8227332998067141	2	49	2420982.292	75	0.5674791997298598	1	0
437.7589691	0.8253963999450207	2	49	2420983.469	81.25	0.9212587000802159	2	0
438.58436545776203	0.8171431003138423	2	49	2420984.366	68.75	0.9925218001008034	2	0
439.4015085580759	0.8180259997025132	2	49	2420985.129	81.25	0.9392713997513056	2	0
440.2195345577784	0.8164689000695944	2	49	2420985.787	100	0.7785551003180444	1	0
441.0360035	0.8160958997905254	2	49	2420986.647	93.75	0.8220830000936985	2	0
441.8520993576385	0.8166713	2	49	2420987.785	50	1.1438825000077486	2	0
442.6687706578523	0.8095920998603106	2	49	2420988.459	68.75	1.0016256999224424	2	0
443.4783627577126	0.8135369000956416	2	49	2420989.437	50	1.1696844003163278	2	0
444.29189965780824	0.8236842998303473	1	0	0	0	0	0	0
445.1155839576386	0.8167612003162503	2	0	0	0	0	0	0
445.93234515795484	0.8152111	2	49	2420991.307	81.25	0.5856665000319481	1	0
446.7475563	0.8197343000210822	2	49	2420991.955	56.25	0.41846719989553094	1	0
447.56729055801407	0.8158021997660398	2	49	2420992.996	87.5	0.6401705997996032	1	0
448.3830927577801	0.8187597002834082	1	0	0	0	0	0	0
449.2018524580635	0.8223810996860266	2	49	2420994.485	68.75	0.4943097997456789	1	0
450.02423355774954	0.8183659	2	49	2420995.615	93.75	0.8020681999623775	2	0
450.84259945806116	0.8208546997047961	2	49	2420996.599	75	0.9679068997502327	2	0
451.66345415776595	0.8165584001690149	2	49	2420997.372	81.25	0.9200245998799801	2	0
452.48001255793497	0.8115133997052908	2	49	2420998.194	81.25	0.9253078997135162	2	0
453.29152595764026	0.8240256002172828	1	49	2420998.917	93.75	0.8368827002122998	2	0
454.11555155785754	0.8204677999019623	2	49	2421000.143	43.75	1.2390116001479328	2	0
454.9360193577595	0.8226783000864089	2	0	0	0	0	0	0
455.7586976578459	0.8129921001382172	2	49	2421001.108	75	0.5611401000060141	1	0
456.57168975798413	0.8170491997152567	2	49	2421002.132	100	0.7713581998832524	1	0
457.3887389576994	0.8245161999948323	2	49	2421002.763	75	0.5857818000949919	1	0
458.2132551576942	0.8170443000271916	2	49	2421003.82	93.75	0.8183948001824319	2	0
459.0302994577214	0.8257198	2	49	2421004.535	93.75	0.7164274002425373	1	0
459.8560192580335	0.8141534999012947	2	49	2421005.18	75	0.5356473	1	0
460.6701727579348	0.8141040997579694	2	49	2421005.866	56.25	0.4073950001038611	1	0
461.48427685769275	0.8244434003718197	2	49	2421006.848	75	0.5755139	1	0
462.30872025806457	0.8227068996056914	2	49	2421007.818	93.75	0.7210656995885074	1	0
463.13142715767026	0.8141742004081607	2	49	2421008.661	100	0.7411529002711177	1	0
463.9456013580784	0.8158970000222325	2	49	2421009.524	93.75	0.7893780996091664	2	0
464.76149835810065	0.8165440997108817	2	49	2421010.618	62.5	1.0680078999139369	2	0
465.57804245781153	0.8181852	2	49	2421011.439	62.5	1.0722743002697825	2	0
466.39622765779495	0.8229883001185954	1	49	2421012.166	75	0.9806750002317131	2	0
467.21921595791355	0.8146795001812279	2	49	2421012.842	93.75	0.8344521000981331	2	0
468.0338954580948	0.8182914	2	49	2421013.615	93.75	0.7929441998712718	2	0
468.8521868577227	0.8175490000285208	2	49	2421014.241	81.25	0.6002643001265824	1	0
469.6697358577512	0.8177266	2	49	2421015.073	81.25	0.6142617003060877	1	0
470.4874624577351	0.8198641003109515	2	49	2421015.926	87.5	0.6497527002356946	1	0
471.30732655804604	0.8211984	2	49	2421016.74	87.5	0.6435758	1	0
472.1285249576904	0.8249064004048705	2	49	2421017.547	81.25	0.6296928999945521	1	0
472.95343135809526	0.8191681997850537	2	49	2421018.389	87.5	0.6466941996477544	1	0
473.7725995578803	0.8156532999128103	2	49	2421019.22	87.5	0.6585925999097526	1	0
474.5882528577931	0.8169402000494301	2	49	2421020.028	87.5	0.6512711001560092	1	0
475.40519305784255	0.8181973001919687	2	49	2421020.774	75	0.5797207998111844	1	0
476.2233903580345	0.818761	2	49	2421021.592	75	0.5796143999323249	1	0
477.0421513579786	0.8184022000059485	2	49	2421022.345	68.75	0.5141765996813774	1	0
477.86055355798453	0.8186053	2	49	2421023.119	62.5	0.46966359997168183	1	0
478.6791588580236	0.8198887999169528	2	49	2421023.903	62.5	0.43497309973463416	1	0
479.49904765794054	0.8181277001276612	2	49	2421024.73	62.5	0.4422830999828875	1	0
480.3171753580682	0.8163646999746561	2	49	2421025.52	56.25	0.4145967997610569	1	0
481.13354005804285	0.8146144999191165	2	49	2421026.375	62.5	0.4525442998856306	1	0
481.94815455796197	0.8145822999067605	1	49	2421027.764	68.75	1.0273326998576522	2	0
482.76273685786873	0.8170257997699082	2	49	2421028.697	50	1.1456065000966191	2	0
483.57976265763864	0.8128902004100382	2	49	2421029.443	62.5	1.074746200349182	2	0
484.3926528580487	0.8178423997014761	2	49	2421030.322	56.25	1.1403216999024153	2	0
485.21049525775015	0.8225026000291109	2	0	0	0	0	0	0
486.03299785777926	0.8137842998839915	2	49	2421031.459	81.25	0.6373661002144217	1	0
486.84678215766326	0.8190296003594995	2	49	2421032.149	68.75	0.5136577002704144	1	0
487.66581175802276	0.8232895997352898	2	49	2421032.963	68.75	0.5086901998147368	1	0
488.48910135775805	0.8130974001251161	2	49	2421033.881	81.25	0.6035649	1	0
489.30219875788316	0.8103294000029564	2	49	2421035.105	68.75	1.0142802000045776	2	0
490.1125281578861	0.8124549998901784	2	0	0	0	0	0	0
490.9249831577763	0.8265491002239287	2	49	2421036.233	68.75	0.5190973998978734	1	0
491.7515322580002	0.8159448998048902	2	49	2421037.628	62.5	1.0882334997877479	2	0
492.5674771578051	0.8194698002189398	2	49	2421038.425	62.5	1.0686718001961708	2	0
493.38694695802405	0.8163282000459731	2	49	2421039.208	68.75	1.0320144998840988	2	0
494.2032752	0.8137025996111333	2	49	2421040.075	62.5	1.0834871996194124	2	0
495.01697775768116	0.8231779001653194	2	49	2421040.878	62.5	1.0727165001444519	2	0
495.8401556578465	0.8208566000685096	1	0	0	0	0	0	0
496.6610123	0.8152976999990642	2	49	2421042.026	75	0.5759895998053253	1	0
497.47630995791405	0.8160270997323096	2	49	2421043.156	81.25	0.8915163	2	0
498.29233705764636	0.8156698001548648	1	0	0	0	0	0	0
499.10800685780123	0.8239762000739574	2	49	2421044.436	75	0.5397645998746157	1	0
499.9319830578752	0.8157949	2	49	2421045.476	100	0.7552307997830212	1	0
500.7477779579349	0.8137992001138628	2	49	2421046.305	100	0.7684721001423895	1	0
501.56157715804875	0.82186	1	49	2421047.094	100	0.7443021000362933	1	0
502.38343715807423	0.8110630000010133	2	49	2421048.286	56.25	1.113996799569577	2	0
503.19450015807524	0.8284489996731281	2	49	2421049.104	56.25	1.1204725997522473	2	0
504.02294915774837	0.8246329999528825	2	49	2421049.889	62.5	1.077389500103891	2	0
504.84758215770125	0.8219277001917362	2	0	0	0	0	0	0
505.6695099	0.8232808001339436	2	49	2421051.237	100	0.7789885997772217	1	0
506.49279065802693	0.8167059998959303	2	49	2421052.1	93.75	0.8185014999471605	2	0
507.30949665792286	0.8195599000900984	1	0	0	0	0	0	0
508.12905655801296	0.8211672999896109	2	0	0	0	0	0	0
508.9502238580026	0.8268780997022986	2	0	0	0	0	0	0
509.7771019577049	0.8157183001749218	2	0	0	0	0	0	0
510.5928202578798	0.8122633001767099	2	0	0	0	0	0	0
511.4050835580565	0.8125843997113407	2	49	2421056.996	93.75	0.8026225999929011	2	0
512.2176679577678	n/a	0	49	2421057.465	62.5	0.45917760021984577	1	0