onset	duration	cue	constant1	timestamp	stimulus_coherence	response_time	response	constant2
0.0979079	0.8021998000331223	2	0	0	0	0	0	0
0.9001076999120414	0.8002249000128359	2	49	1901530.279	75	0.5648521	1	0
1.7003325999248773	0.8039432999212295	2	49	1901531.577	62.5	1.0626411999110132	2	0
2.5042758998461068	0.8018561999779195	2	49	1901532.147	87.5	0.8286705000791699	2	0
3.3061320998240262	0.8019074001349509	2	49	1901532.81	93.75	0.6892065999563783	1	0
4.108039499958977	0.8006929999683052	2	49	1901533.498	81.25	0.5762918000109494	1	0
4.908732499927282	0.7980351	2	49	1901534.755	68.75	1.0316469999961555	2	0
5.706767599796876	0.8496169000864029	2	49	1901535.369	93.75	0.8478774	2	0
6.556384499883279	0.7981859	2	49	1901536.022	87.5	0.6519200000911951	1	0
7.354570399969816	0.8007771999109536	2	49	1901537.009	87.5	0.8398392999079078	2	0
8.1553476	0.8007557999808341	2	49	1901537.602	87.5	0.6328296000137925	1	0
8.956103399861604	0.8007344000507146	2	49	1901538.406	87.5	0.6353754999581724	1	0
9.756837799912319	0.8012784000020474	2	49	1901539.324	100	0.7525132	1	0
10.558116199914366	0.8002333000767976	2	49	1901540.245	81.25	0.8726639000233263	2	0
11.358349499991164	0.8019707	2	49	1901540.882	93.75	0.7090871999971569	1	0
12.160320199793205	0.8000644000712782	1	49	1901541.589	81.25	0.6141707000788301	1	0
12.960384599864483	0.8005471001379192	2	49	1901542.789	68.75	1.014277399983257	2	0
13.760931700002402	0.7994408998638391	1	49	1901543.222	87.5	0.6465454997960478	1	0
14.560372599866241	0.8015565001405776	2	49	1901544.071	93.75	0.6968140001408756	1	0
15.361929100006819	0.7994240999687463	1	49	1901545	87.5	0.8234709999524057	2	0
16.161353199975565	0.8001674998085946	2	49	1901546.037	62.5	1.061128000030294	2	0
16.96152069978416	0.8001400001812726	2	49	1901546.446	87.5	0.6705346000380814	1	0
17.761660699965432	0.8002342998515815	1	49	1901547.146	75	0.5702074998989701	1	0
18.561894999817014	0.8015205999836326	2	49	1901547.98	81.25	0.6035503000020981	1	0
19.363415599800646	0.8008707000408322	2	49	1901548.919	100	0.7411022000014782	1	0
20.16428629984148	0.7995957999955863	2	49	1901549.653	93.75	0.6742426999844611	1	0
20.963882099837065	0.8016613000072539	2	49	1901550.739	75	0.9606316999997944	2	0
21.76554339984432	0.8003720999695361	2	49	1901551.337	100	0.7571324999444187	1	0
22.565915499813855	0.8018530001863837	2	49	1901551.985	81.25	0.6051924000494182	1	0
23.36776850000024	0.8004051998723298	2	49	1901552.821	87.5	0.6386008	1	0
24.16817369987257	0.7996058999560773	2	49	1901553.69	93.75	0.7073828999418765	1	0
24.967779599828646	0.8026024	2	49	1901554.785	68.75	1.003165900008753	2	0
25.770381999900565	0.7996974000707269	2	49	1901555.263	93.75	0.6782494999933988	1	0
26.57007939997129	0.8002013999503106	2	49	1901556.328	75	0.9435689998790622	2	0
27.370280799921602	0.7991978998761624	2	49	1901556.868	93.75	0.6830650998745114	1	0
28.169478699797764	0.8012771001085639	2	49	1901557.494	68.75	0.5099682	1	0
28.97075579990633	0.7997367999050766	2	49	1901558.711	75	0.9263804000802338	2	0
29.770492599811405	0.7992424999829382	2	49	1901559.418	87.5	0.8334890000987798	2	0
30.569735099794343	0.7994752	2	49	1901560.085	93.75	0.7015383001416922	1	0
31.369210299802944	0.8007159000262618	2	49	1901560.837	87.5	0.6538364000152797	1	0
32.169926199829206	0.8008304	2	49	1901561.614	87.5	0.6298942000139505	1	0
32.97075659991242	0.8003603999968618	2	49	1901562.497	93.75	0.7119326998945326	1	0
33.77111699990928	0.8014044999144971	2	49	1901563.576	68.75	0.9908837999682873	2	0
34.57252149982378	0.7972048001829535	2	49	1901564.382	68.75	0.9953456001821905	2	0
35.36972630000673	0.7992777	1	49	1901565.171	68.75	0.9867507999297231	2	0
36.16900399979204	0.8020308001432568	2	49	1901566.122	50	1.139315300155431	2	0
36.971034799935296	0.7999916998669505	2	49	1901566.911	50	1.1260172000620514	2	0
37.77102649980225	0.8003452999982983	2	49	1901567.583	68.75	0.9973649000748992	2	0
38.571371799800545	0.7997848000377417	2	49	1901568.215	87.5	0.8297912001144141	2	0
39.37115659983829	0.7998571000061929	2	49	1901568.8	81.25	0.6150202001444995	1	0
40.17101369984448	0.7997968001291156	2	49	1901569.53	75	0.5444176001474261	1	0
40.970810499973595	0.8001392998266965	2	49	1901570.792	68.75	1.006612699944526	2	0
41.77094979980029	0.8006751001812518	2	49	1901571.358	93.75	0.7733630000147969	2	0
42.57162489998154	0.7997413999401033	2	49	1901571.944	75	0.5577544	1	0
43.37136629992165	0.7996409998741001	2	49	1901573.07	81.25	0.8849386998917907	2	0
44.17100729979575	0.8011113000102341	2	49	1901573.55	75	0.5644736001268029	1	0
44.97211859980598	0.7972550000995398	2	49	1901574.559	93.75	0.7723390001337975	2	0
45.76937359990552	0.7999907000921667	2	49	1901575.599	68.75	1.0154275000095367	2	0
46.56936429999769	0.8000007	2	49	1901576.034	87.5	0.6502405998762697	1	0
47.36936499993317	0.8003833000548184	2	49	1901577.208	62.5	1.0240328998770565	2	0
48.16974829998799	0.7990327998995781	2	49	1901578.177	43.75	1.1927562998607755	2	0
48.968781099887565	0.8012530999258161	2	49	1901578.587	93.75	0.8036772001069039	2	0
49.77003419981338	0.7997055	1	49	1901579.156	81.25	0.5717089001554996	1	0
50.56973969982937	0.7982133999466896	2	49	1901580.303	75	0.9190018000081182	2	0
51.36795309977606	0.8004065002314746	1	49	1901580.905	100	0.7226313001010567	1	0
52.168359600007534	0.8014923997689039	2	49	1901581.632	87.5	0.6493321999441832	1	0
52.96985199977644	0.8011808001901954	2	49	1901582.767	68.75	0.9827226002234966	2	0
53.77103279996663	0.8030116998124868	2	49	1901583.316	100	0.7304116	1	0
54.57404449977912	0.7975373000372201	2	49	1901584.437	62.5	1.0486713000573218	2	0
55.37158179981634	0.8002363999839872	2	49	1901584.945	100	0.7592190001159906	1	0
56.17181819980033	0.7999849000480026	2	49	1901585.59	81.25	0.6039154001045972	1	0
56.97180309984833	0.8033007001504302	2	49	1901586.739	75	0.9528614000882953	2	0
57.77510379999876	0.7992631997913122	2	49	1901587.341	100	0.7516744998283684	1	0
58.57436699979007	0.8015505000948906	2	49	1901588.465	56.25	1.0763050999958068	2	0
59.37591749988496	0.8004113000351936	2	49	1901589.112	75	0.9221910000778735	2	0
60.17632879992016	0.8017108999192715	2	49	1901589.895	81.25	0.9047270999290049	2	0
60.97803969983943	0.8017472999636084	2	49	1901590.419	87.5	0.6266902999486774	1	0
61.77978699980304	0.8001046001445502	1	0	0	0	0	0	0
62.57989159994759	0.8011199999600649	2	49	1901591.781	56.25	0.38664919999428093	1	0
63.38101159990765	0.8019898000638932	2	49	1901593.068	81.25	0.8727412999141961	2	0
64.18300139997154	0.7997375000268221	2	49	1901593.771	93.75	0.7741069998592138	2	0
64.98273889999837	0.7982748998329043	2	49	1901594.359	75	0.5625445998739451	1	0
65.78101379983127	0.8015702001284808	2	49	1901595.432	87.5	0.8371008	2	0
66.58258399995975	0.8006676000077277	1	49	1901595.883	68.75	0.48650709982030094	1	0
67.38325159996748	0.8006288	2	49	1901596.659	62.5	0.46193779981695116	1	0
68.1838804	0.7998742000199854	2	49	1901597.975	68.75	0.9770797	2	0
68.98375459993258	0.8016997000668198	2	49	1901598.456	87.5	0.6583773999009281	1	0
69.7854543	0.8023637998849154	2	49	1901599.516	81.25	0.9160571999382228	2	0
70.58781809988432	0.8005488999187946	2	49	1901600.141	100	0.7390572999138385	1	0
71.38836699980311	0.7985686999745667	2	49	1901600.73	75	0.5276311000343412	1	0
72.18693569977768	0.8036263000685722	2	49	1901601.851	87.5	0.8497367000672966	2	0
72.99056199984625	0.7995476	2	49	1901602.468	87.5	0.6637490999419242	1	0
73.79010959994048	0.8015715999063104	2	49	1901603.114	68.75	0.5096914998721331	1	0
74.59168119984679	0.7982338001020253	1	49	1901603.771	50	0.3655379000119865	1	0
75.38991499994881	0.8022437000181526	2	49	1901604.735	75	0.5313341000583023	1	0
76.19215869996697	0.7993963998742402	2	49	1901605.945	75	0.9391127	2	0
76.99155509984121	0.7983883	2	49	1901606.769	75	0.9628667000215501	2	0
77.7899434	0.8001681000459939	2	49	1901607.457	87.5	0.8532589999958873	2	0
78.5901115	0.7996732001192868	2	49	1901608.152	100	0.7473720998968929	1	0
79.38978470000438	0.8007173999212682	2	49	1901609.017	93.75	0.8131889998912811	2	0
80.19050209992565	0.7997383999172598	2	49	1901609.88	81.25	0.8749277999158949	2	0
80.99024049984291	0.8009936001617461	2	49	1901610.828	62.5	1.0232146999333054	2	0
81.79123410000466	0.7997092998120934	2	49	1901611.408	93.75	0.8024368998594582	2	0
82.59094339981675	0.7995831000152975	2	49	1901611.941	75	0.5362150999717414	1	0
83.39052649983205	0.7997943	2	49	1901613.221	68.75	1.0160857001319528	2	0
84.19032079982571	0.8008565	2	49	1901613.873	87.5	0.8685702001675963	2	0
84.99117729999125	0.7996092999819666	2	49	1901614.619	93.75	0.8138267998583615	2	0
85.79078659997322	0.7988303999882191	2	49	1901615.422	93.75	0.8168591000139713	2	0
86.58961699996144	0.7988368000369519	2	49	1901616.227	87.5	0.8229563999921083	2	0
87.38845379999839	0.8004989000037313	2	49	1901617.017	93.75	0.8144798998255283	2	0
88.18895270000212	0.801944	2	49	1901617.813	93.75	0.8095542998053133	2	0
88.9908967	0.7994204999413341	2	49	1901618.628	87.5	0.8228340998757631	2	0
89.79031719989143	0.8016725000925362	2	49	1901619.571	75	0.9665584999602288	2	0
90.59198969998397	0.8033953998237848	2	49	1901620.278	87.5	0.8717077998444438	2	0
91.39538509980775	0.7989692999981344	2	49	1901621.299	56.25	1.0895593001041561	2	0
92.19435439980589	0.7989594000391662	2	49	1901621.985	68.75	0.9764185000676662	2	0
92.99331379984505	0.8007835000753403	2	49	1901623.005	43.75	1.1975100000854582	2	0
93.7940973	0.8006089	2	49	1901623.671	62.5	1.0631251998711377	2	0
94.5947062	0.7987089999951422	2	49	1901624.426	68.75	1.0171376999933273	2	0
95.39341519982554	0.7997630001045763	2	49	1901625.271	62.5	1.063786300132051	2	0
96.19317819993012	0.8006843000184745	2	49	1901626.151	50	1.1439652999397367	2	0
96.99386249994859	0.7989431999158114	2	49	1901626.698	81.25	0.8902991998475045	2	0
97.7928057	0.7995402000378817	2	49	1901627.573	75	0.9662687999662012	2	0
98.59234589990228	0.8001061000395566	2	49	1901628.291	81.25	0.8848351999185979	2	0
99.39245199994184	0.7987680998630822	2	49	1901629.23	62.5	1.023532599909231	2	0
100.19122009980492	0.7995625000912696	2	49	1901630.044	62.5	1.0386400001589209	2	0
100.99078259989619	0.8010428000707179	2	49	1901630.907	56.25	1.1022425999399275	2	0
101.79182539996691	0.7996741000097245	2	49	1901631.647	62.5	1.041289399843663	2	0
102.59149949997663	0.8005961999297142	2	49	1901632.286	81.25	0.8806171999312937	2	0
103.39209569990635	0.7989312999416143	2	49	1901632.957	100	0.7512373998761177	1	0
104.19102699984796	0.7999789000023156	2	49	1901633.531	75	0.5262200001161546	1	0
104.99100589985028	0.7983955999370664	2	49	1901634.868	62.5	1.063227300066501	2	0
105.78940149978735	0.8009425001218915	2	49	1901635.542	75	0.9381479001604021	2	0
106.59034399990924	0.8012884999625385	2	49	1901636.19	93.75	0.7858871999196708	2	0
107.39163249987178	0.7990127000957727	2	49	1901636.768	75	0.5622175000607967	1	0
108.19064519996755	0.8008902999572456	1	49	1901637.478	68.75	0.47359139984473586	1	0
108.9915354999248	0.8001220999285579	1	49	1901638.13	50	0.32468790002167225	1	0
109.79165759985335	0.8000634999480098	2	49	1901639.597	68.75	0.9912547001149505	2	0
110.59172109980136	0.8001560000702739	2	49	1901640.2	93.75	0.7945577001664788	2	0
111.39187709987164	0.7991776999551803	2	49	1901640.968	100	0.7623791000805795	1	0
112.19105479982682	0.8006987001281232	1	49	1901641.845	87.5	0.8398778000846505	2	0
112.99175349995494	0.8007499999366701	2	49	1901642.68	81.25	0.8741874999832362	2	0
113.79250349989161	0.7995595999527723	2	49	1901643.465	87.5	0.8582913998980075	2	0
114.59206309984438	0.8000471000559628	2	49	1901644.258	87.5	0.8514028999488801	2	0
115.39211019990034	0.7986318001057953	2	49	1901645.216	68.75	1.0100980000570416	2	0
116.19074200000614	0.8005639999173582	2	49	1901646.097	56.25	1.0921146997716278	2	0
116.9913059999235	0.8005291000008583	2	49	1901646.699	81.25	0.8935024000238627	2	0
117.79183509992436	0.7998136000242084	2	49	1901647.277	93.75	0.6706632999703288	1	0
118.59164869994856	0.8018268998712301	2	49	1901647.946	75	0.5406553999055177	1	0
119.3934755998198	0.7988232001662254	2	49	1901648.669	62.5	0.4617296000942588	1	0
120.19229879998602	0.8010566998273134	2	49	1901649.47	62.5	0.4636994998436421	1	0
120.99335549981333	0.8004566000308841	2	49	1901650.262	62.5	0.45428439998067915	1	0
121.79381209984422	0.7972222999669611	2	49	1901650.944	50	0.33616099995560944	1	0
122.59103439981118	0.8006842001341283	2	49	1901652.368	75	0.9631109000183642	2	0
123.3917185999453	0.8000504998490214	2	49	1901653.154	75	0.948355	2	0
124.19176909979433	0.8016719000879675	2	49	1901653.705	93.75	0.6991944001056254	1	0
124.9934409998823	0.7997067999094725	2	49	1901654.355	75	0.5478699998930097	1	0
125.79314779979177	0.7995345001108944	2	49	1901655.148	75	0.5408226000145078	1	0
126.59268229990266	0.8000694999936968	2	49	1901656.012	81.25	0.6052886000834405	1	0
127.39275179989636	0.8002047000918537	2	49	1901656.864	87.5	0.6571696000173688	1	0
128.1929564999882	0.7994760998990387	2	49	1901657.781	93.75	0.7737665998283774	2	0
128.99243259988725	0.8011261	2	49	1901658.703	81.25	0.8963562	2	0
129.79355869977735	0.7998463	2	49	1901659.814	43.75	1.2066949	2	0
130.59340499993414	0.8035295000299811	2	0	0	0	0	0	0
131.39693449996412	0.8029827999416739	2	49	1901660.862	87.5	0.6512376	1	0
132.1999172999058	0.8028059999924153	2	49	1901661.845	87.5	0.8313321000896394	2	0
133.0027232998982	0.7985236	2	49	1901662.735	81.25	0.9183807000517845	2	0
133.8012468998786	0.8004229001235217	2	49	1901663.664	62.5	1.0483391999732703	2	0
134.60166980000213	0.7987880997825414	2	0	0	0	0	0	0
135.40045789978467	0.8010391001589596	2	49	1901664.892	93.75	0.6776764001697302	1	0
136.20149699994363	0.7994581998791546	2	49	1901665.902	81.25	0.8861806	2	0
137.00095519982278	0.7995881	1	0	0	0	0	0	0
137.80054329987615	0.8011288999114186	2	49	1901667.157	75	0.5427169	1	0
138.60167219978757	0.7988438000902534	1	0	0	0	0	0	0
139.40051599987783	0.8020087000913918	2	49	1901668.697	68.75	0.4825997999869287	1	0
140.20252469996922	0.7986057000234723	2	49	1901669.597	81.25	0.5806982000358403	1	0
141.0011303999927	0.8013179998379201	2	49	1901670.366	75	0.5503165000118315	1	0
141.8024483998306	0.8002301000524312	2	49	1901671.067	62.5	0.45002430002205074	1	0
142.60267849988304	0.8003785000182688	2	49	1901671.837	56.25	0.4197090999223292	1	0
143.4030569999013	0.7987285999115556	2	49	1901672.609	56.25	0.3920682999305427	1	0
144.20178559981287	0.8013910001609474	2	49	1901673.431	56.25	0.41464029997587204	1	0
145.0031765999738	0.8006247000303119	2	49	1901674.853	62.5	1.0357019999064505	2	0
145.80380130000412	0.8014015997759998	2	49	1901675.616	68.75	0.9983393999282271	2	0
146.60520289978012	0.8014116000849754	2	49	1901676.632	43.75	1.2124318000860512	2	0
147.4066144998651	0.7991858	2	0	0	0	0	0	0
148.20580029999837	0.8014447998721153	2	49	1901677.776	100	0.7558845998719335	1	0
149.0072450998705	0.7988517000339925	2	49	1901678.543	100	0.7213614000938833	1	0
149.80609679990448	0.8008717999327928	2	0	0	0	0	0	0
150.60696859983727	0.8005766000133008	2	49	1901679.889	62.5	0.4678019001148641	1	0
151.40754519985057	0.8006120999343693	2	49	1901680.933	93.75	0.7115846001543105	1	0
152.20815729978494	0.8013152000494301	2	49	1901681.975	75	0.9527764001395553	2	0
153.00947249983437	0.8012734	2	49	1901682.838	68.75	1.0139290001243353	2	0
153.81074589979835	0.7998131001368165	2	49	1901683.69	62.5	1.065140400081873	2	0
154.61055899993517	0.8013403	2	0	0	0	0	0	0
155.41189929982647	0.8006397001445293	1	49	1901685.204	68.75	0.9777412000112236	2	0
156.212539	0.7989607998169959	2	0	0	0	0	0	0
157.0114998	0.7997483999934047	2	49	1901686.339	68.75	0.5134998001158237	1	0
157.8112481997814	0.7985253999941051	1	49	1901687.121	68.75	0.49535340000875294	1	0
158.6097735997755	0.8007323001511395	2	49	1901688.096	93.75	0.6720929001457989	1	0
159.41050589992665	0.7996175999287516	2	49	1901689.165	75	0.9400180000811815	2	0
160.2101234998554	0.8009303000289947	2	0	0	0	0	0	0
161.0110537998844	0.8001147001050413	2	49	1901690.349	75	0.5239934	1	0
161.81116849998944	0.8008379999082536	2	49	1901691.19	75	0.5644237999804318	1	0
162.6120064998977	0.8011809000745416	1	0	0	0	0	0	0
163.41318739997223	0.8004041998647153	1	0	0	0	0	0	0
164.21359159983695	0.7992893999908119	2	49	1901694.056	62.5	1.0284307000692934	2	0
165.01288099982776	0.7988641001284122	2	49	1901694.56	100	0.7332087999675423	1	0
165.81174509995617	0.8006674000062048	2	49	1901695.616	68.75	0.9900892998557538	2	0
166.61241249996237	0.8006784999743104	1	49	1901696.086	87.5	0.6590030000079423	1	0
167.41309099993668	0.8014775000046939	2	49	1901697.008	93.75	0.7809603000059724	2	0
168.21456849994138	0.7988358999136835	2	49	1901697.776	100	0.7473003000486642	1	0
169.01340439985506	0.7998135001398623	2	49	1901698.64	93.75	0.8121218	2	0
169.81321789999492	0.7995728999376297	2	49	1901699.599	68.75	0.9712512	2	0
170.61279079993255	0.7989060999825597	2	49	1901700.09	87.5	0.6626164999324828	1	0
171.4116968999151	0.8011972999665886	2	49	1901701.169	75	0.9429381999652833	2	0
172.2128941998817	0.7987299999222159	2	49	1901701.724	93.75	0.6973274000920355	1	0
173.01162419980392	0.8018422999884933	1	49	1901702.242	56.25	0.4164989001583308	1	0
173.8134664997924	0.7981275001075119	2	49	1901703.595	75	0.9677166000474244	2	0
174.61159399989992	0.7994429999962449	2	49	1901704.155	100	0.7297023	1	0
175.41103699989617	0.8012745000887662	2	49	1901705.1	81.25	0.8745174999348819	2	0
176.21231149998493	0.7993193999864161	2	49	1901705.619	81.25	0.5925411998759955	1	0
177.01163089997135	0.8012945000082254	2	49	1901706.757	75	0.9309052999597043	2	0
177.81292539997958	0.8004939998500049	2	49	1901707.272	87.5	0.645393	1	0
178.61341939982958	0.7994939000345767	2	49	1901707.792	50	0.36414940003305674	1	0
179.41291329986416	0.8001113	2	49	1901709.022	93.75	0.7945026999805123	2	0
180.2130245999433	0.7998603999149054	2	49	1901709.647	81.25	0.6194529000204057	1	0
181.01288499985822	0.7996988999657333	2	49	1901710.225	56.25	0.3978190999478102	1	0
181.81258389982395	0.7997256000526249	2	49	1901711.492	87.5	0.8651460001710802	2	0
182.61230949987657	0.8001137999817729	2	49	1901712.249	87.5	0.8224478	2	0
183.41242329985835	0.8017762000672519	2	49	1901713.353	50	1.1260592001490295	2	0
184.2141994999256	0.8009074998553842	1	0	0	0	0	0	0
185.01510699978098	0.8016249001957476	2	49	1901714.861	62.5	1.0315163000486791	2	0
185.81673189997673	0.8015003998298198	2	49	1901715.752	56.25	1.1211935998871922	2	0
186.61823229980655	0.8008152002003044	2	0	0	0	0	0	0
187.41904750000685	0.8010202997829765	2	49	1901716.693	62.5	0.4597918998915702	1	0
188.22006779978983	0.8011541999876499	1	49	1901717.99	75	0.9558461999986321	2	0
189.02122199977748	0.8003251000773162	2	49	1901718.69	87.5	0.8545269002206624	2	0
189.8215470998548	0.8002737001515925	2	49	1901719.398	100	0.7618976000230759	1	0
190.6218208000064	0.8007322999183089	2	49	1901720.184	100	0.7484628998208791	1	0
191.4225530999247	0.8010796	2	49	1901720.817	81.25	0.5802541000302881	1	0
192.22363269980997	0.8000672999769449	2	49	1901721.516	68.75	0.4781482999678701	1	0
193.0236999997869	0.8008648	2	49	1901722.339	68.75	0.5008926000446081	1	0
193.82456479989924	0.8002599000465125	2	49	1901724.002	25	1.3635501000098884	2	0
194.62482469994575	0.7998681999742985	1	0	0	0	0	0	0
195.42469289992005	0.8002319000661373	2	49	1901724.605	50	0.3661634000018239	1	0
196.22492479998618	0.7999525	2	49	1901725.654	81.25	0.6149901999160647	1	0
197.02487729978748	0.8011048000771552	2	49	1901726.806	75	0.9665947000030428	2	0
197.82598209986463	0.8019878999330103	2	49	1901727.327	93.75	0.6871984000317752	1	0
198.62796999979764	0.8012964001391083	2	49	1901728.332	81.25	0.8899495000950992	2	0
199.42926639993675	0.8002826999872923	2	49	1901729.21	75	0.9666541998740286	2	0
200.22954909992404	0.8005975999403745	2	49	1901729.678	87.5	0.6341675999574363	1	0
201.03014669986442	0.8009823	2	49	1901730.42	81.25	0.5757649999577552	1	0
201.8311289998237	0.8011895001400262	2	49	1901731.368	100	0.7225342001765966	1	0
202.63231849996373	0.7994552999734879	2	49	1901732.434	68.75	0.9879985998850316	2	0
203.43177379993722	0.7994528999552131	2	49	1901733.133	81.25	0.8872755998745561	2	0
204.23122669989243	0.8000346	2	49	1901733.627	81.25	0.5820975000970066	1	0
205.03126129996963	0.8012717999517918	2	49	1901734.133	43.75	0.28724859980866313	1	0
205.83253309992142	0.7996803000569344	1	49	1901735.554	81.25	0.9070081999525428	2	0
206.63221339997835	0.7997692998033017	2	49	1901736.463	68.75	1.017009599832818	2	0
207.43198269978166	0.8001480000093579	2	49	1901736.886	87.5	0.6395733000244945	1	0
208.2321307	0.7997354	2	49	1901737.701	87.5	0.6547391000203788	1	0
209.03186609991826	0.7998148000333458	2	49	1901738.542	93.75	0.6957622000481933	1	0
209.8316808999516	0.7993093	2	49	1901739.335	93.75	0.6887711000163108	1	0
210.63099019997753	0.7999623	2	49	1901740.194	100	0.7491316	1	0
211.43095249985345	0.7997441000770777	2	49	1901741.144	81.25	0.8989033999387175	2	0
212.23069659993052	0.8005011000204831	2	49	1901741.646	81.25	0.6006737998686731	1	0
213.0311977	0.8003920998889953	2	49	1901742.524	93.75	0.6781742998864502	1	0
213.8315898	0.8002632	2	49	1901743.026	56.25	0.38016550010070205	1	0
214.63185299979523	0.7990312001202255	2	49	1901744.161	93.75	0.7147525001782924	1	0
215.43088419991545	0.8010371	2	49	1901744.967	100	0.7216777000576258	1	0
216.23192129982635	0.8002306001726538	2	49	1901745.961	81.25	0.9148510999511927	2	0
217.0321519	0.8005248999688774	2	49	1901746.301	62.5	0.4543673999141902	1	0
217.83267679996789	0.8002821998670697	2	49	1901747.104	62.5	0.4569585998542607	1	0
218.63295899983495	0.7993415000382811	2	49	1901748.031	81.25	0.5837221001274884	1	0
219.43230049987324	0.7986350001301616	2	49	1901749.043	93.75	0.7969782999716699	2	0
220.2309355000034	0.8015520998742431	2	49	1901749.654	81.25	0.6089521998073906	1	0
221.03248759987764	0.8009979000780731	1	49	1901750.288	62.5	0.44131050002761185	1	0
221.8334854999557	0.8015760998241603	1	49	1901751.598	75	0.9505989998579025	2	0
222.63506159977987	0.7983623000327498	2	49	1901752.664	43.75	1.2146038000937551	2	0
223.43342389981262	0.7986487001180649	2	0	0	0	0	0	0
224.2320725999307	0.8003040000330657	2	49	1901754.372	25	1.3256276999600232	2	0
225.03237659996375	0.8008426998276263	2	49	1901754.849	68.75	1.0026872	2	0
225.83321929979138	0.7994702002033591	2	0	0	0	0	0	0
226.63268949999474	0.7993995998986065	2	49	1901755.935	68.75	0.4882573999930173	1	0
227.43208909989335	0.7985408001113683	2	49	1901756.988	100	0.7418130999431014	1	0
228.23062990000471	0.8011386999860406	2	49	1901758.267	43.75	1.2223005997948349	2	0
229.03176859999076	0.8002280998043716	2	0	0	0	0	0	0
229.83199669979513	0.8005149001255631	2	0	0	0	0	0	0
230.6325115999207	0.7996137000154704	2	0	0	0	0	0	0
231.43212529993616	0.8002368998713791	2	0	0	0	0	0	0
232.23236219980754	0.8000438001472503	2	0	0	0	0	0	0
233.0324059999548	0.8009452000260353	1	0	0	0	0	0	0
233.83335119998083	0.8000200998503715	2	0	0	0	0	0	0
234.6333712998312	0.8002709001302719	2	0	0	0	0	0	0
235.43364219996147	0.7984601999633014	2	0	0	0	0	0	0
236.23210239992477	0.8008405999280512	2	0	0	0	0	0	0
237.03294299985282	0.8003253000788391	2	0	0	0	0	0	0
237.83326829993166	0.7992644000332803	2	0	0	0	0	0	0
238.63253269996494	0.8006958998739719	2	0	0	0	0	0	0
239.4332285998389	0.7993958001025021	2	49	1901769.471	37.5	1.2233810001052916	2	0
240.23262439994141	0.8006263000424951	2	49	1901770.087	62.5	1.0399114999454468	2	0
241.0332506999839	0.7980449998285621	2	49	1901770.774	75	0.9270221998449415	2	0
241.83129569981247	0.8014334000181407	2	49	1901771.224	81.25	0.5781292000319809	1	0
242.6327290998306	0.8011299001518637	2	49	1901772.065	81.25	0.6179693001322448	1	0
243.43385899998248	0.8021374999079853	2	49	1901772.899	87.5	0.6509208998177201	1	0
244.23599649989046	0.8006629	1	49	1901773.69	87.5	0.6399683	1	0
245.03665939997882	0.8015842000022531	2	49	1901774.447	81.25	0.5960115999914706	1	0
245.83824359998107	0.8010603999719024	2	49	1901775.507	87.5	0.8542710000183433	2	0
246.63930399995297	0.8007971998304129	2	49	1901776.241	93.75	0.7873090000357479	2	0
247.44010119978338	0.7991301000583917	2	49	1901776.97	93.75	0.7154783001169562	1	0
248.23923129984178	0.8021452000830323	2	49	1901777.668	81.25	0.6143032000400126	1	0
249.0413764999248	0.8009410998784006	2	49	1901778.76	81.25	0.9041879998985678	2	0
249.8423175998032	0.8001269001979381	2	49	1901779.204	75	0.5476896001491696	1	0
250.64244450000115	0.8014047998003662	2	49	1901780.239	93.75	0.7822145998943597	2	0
251.4438492998015	0.8004970999900252	2	49	1901781.096	87.5	0.8375711999833584	2	0
252.24434639979154	0.8023662001360208	2	49	1901781.61	75	0.5515538000036031	1	0
253.04671259992756	0.7991082998923957	2	49	1901782.179	43.75	0.3179673000704497	1	0
253.84582089981996	0.8002702000085264	2	49	1901783.431	100	0.7710983001161367	1	0
254.64609109982848	0.7998526999726892	2	49	1901784.281	87.5	0.8207674999721348	2	0
255.44594379980117	0.8028759001754224	2	49	1901785.114	87.5	0.8540604000445455	2	0
256.2488196999766	0.8011797999497503	2	49	1901786.043	68.75	0.9798926999792457	2	0
257.04999949992634	0.8000461999326944	1	49	1901786.476	81.25	0.6123118000105023	1	0
257.85004569985904	0.8009146000258625	2	49	1901787.244	81.25	0.5796777999494225	1	0
258.6509602998849	0.7994448998942971	2	49	1901788.331	87.5	0.8657972000073642	2	0
259.4504051997792	0.8016206	2	49	1901789.121	87.5	0.8567054001614451	2	0
260.2520257998258	0.8026441000401974	2	49	1901789.875	93.75	0.8088476001285017	2	0
261.0546699	0.8010663001332432	2	49	1901790.701	87.5	0.8322296000551432	2	0
261.8557361999992	0.8002330998424441	2	49	1901791.472	93.75	0.8023995999246836	2	0
262.6559692998417	0.8001244000624865	2	49	1901792.329	87.5	0.8591750001069158	2	0
263.45609369990416	0.8008300000801682	2	49	1901793.164	81.25	0.8938390999101102	2	0
264.2569236999843	0.7991404999047518	2	49	1901793.984	81.25	0.9124558998737484	2	0
265.0560641998891	0.8003724000882357	1	49	1901794.755	81.25	0.8850779000204057	2	0
265.8564365999773	0.8012163999956101	1	49	1901795.552	81.25	0.8818239998072386	2	0
266.6576529999729	0.7994509998243302	2	49	1901796.074	81.25	0.6025727998930961	1	0
267.45710399979725	0.7997837	2	49	1901797.192	81.25	0.9210921002086252	2	0
268.25688769994304	0.8021334998775274	2	49	1901797.847	93.75	0.7762034998741001	2	0
269.05902119982056	0.8007066999562085	1	49	1901798.577	93.75	0.7042914000339806	1	0
269.8597278997768	0.7992524	2	49	1901799.358	93.75	0.6841255000326782	1	0
270.6589802999515	0.7998941999394447	2	49	1901800.364	81.25	0.8909944999031723	2	0
271.45887449989095	0.8009335999377072	2	49	1901801.075	93.75	0.8024337000679225	2	0
272.25980809982866	0.7996205999515951	2	49	1901801.872	93.75	0.7981192001607269	2	0
273.05942869978026	0.8015752001665533	2	49	1901802.785	81.25	0.9112244001589715	2	0
273.8610038999468	0.8007252998650074	2	49	1901803.596	81.25	0.9205267999786884	2	0
274.6617291998118	0.8005196000449359	2	49	1901804.413	75	0.9374282001517713	2	0
275.46224879985675	0.7997159999795258	2	49	1901805.319	62.5	1.0422024000436068	2	0
276.2619647998363	0.8005645000375807	2	49	1901805.71	87.5	0.6338804000988603	1	0
277.06252929987386	0.8005023999139667	2	49	1901806.919	62.5	1.0422678999602795	2	0
277.8630316997878	0.8003312000073493	2	49	1901807.323	87.5	0.6453528001438826	1	0
278.6633628997952	0.8001243001781404	2	49	1901808.654	43.75	1.1760277000721544	2	0
279.4634871999733	0.7994899998884648	2	49	1901809.153	81.25	0.8752226999495178	2	0
280.2629771998618	0.8007102000992745	2	49	1901810.002	75	0.9245859999209642	2	0
281.06368739996105	0.8026352999731898	2	49	1901810.611	100	0.7326854998245835	1	0
281.86632269993424	0.8016925000119954	2	49	1901811.623	75	0.9426996998954564	2	0
282.66801519994624	0.8002591000404209	2	49	1901812.272	93.75	0.7897848000284284	2	0
283.46827429998666	0.8018824998289347	2	49	1901813.106	87.5	0.8236489999108016	2	0
284.2701567998156	0.7993428001645952	1	49	1901813.829	100	0.7444239	1	0
285.0694995999802	0.7997822	2	49	1901814.594	93.75	0.7102152998559177	1	0
285.86928179999813	0.7992472	2	49	1901815.405	100	0.7213891998399049	1	0
286.66852899990045	0.8010950998868793	2	49	1901816.151	87.5	0.6682529000099748	1	0
287.4696240997873	0.799008	2	49	1901817.28	68.75	0.9959977001417428	2	0
288.2686320999637	0.8009887998923659	2	49	1901817.75	87.5	0.6670856999699026	1	0
289.0696208998561	0.7993560000322759	2	49	1901818.703	93.75	0.8194071	2	0
289.86897689988837	0.7994226000737399	2	49	1901819.737	62.5	1.054150199983269	2	0
290.6683994999621	0.8005374998319894	1	49	1901820.246	100	0.7635548999533057	1	0
291.4689369997941	0.8017138000577688	2	49	1901821.435	50	1.1518059000372887	2	0
292.27065079985186	0.8006641000974923	2	49	1901822.061	68.75	0.9762922001536936	2	0
293.07131489994936	0.7991299000568688	2	49	1901822.621	100	0.7357256999239326	1	0
293.8704448000062	0.8031372998375446	2	49	1901823.214	75	0.5297666999977082	1	0
294.67358209984377	0.7990548	2	49	1901824.494	68.75	1.0063792001456022	2	0
295.47263689991087	0.8008471000939608	2	49	1901824.908	87.5	0.6213716000784189	1	0
296.2734840000048	0.8027601998765022	2	49	1901825.793	93.75	0.7056894998531789	1	0
297.07624419988133	0.8011419998947531	2	49	1901826.766	81.25	0.8760502999648452	2	0
297.8773861997761	0.8032143001910299	2	49	1901827.264	75	0.5727849001996219	1	0
298.6806004999671	0.7998752000275999	2	49	1901827.995	68.75	0.5004853	1	0
299.4804756999947	0.8015599998179823	1	49	1901829.354	62.5	1.0592600000090897	2	0
300.2820356998127	0.7995381001383066	2	49	1901829.94	87.5	0.8434733001049608	2	0
301.0815738	0.8003454999998212	2	49	1901830.982	56.25	1.0865024998784065	2	0
301.8819192999508	0.7995201000012457	2	49	1901831.417	93.75	0.7207384000066668	1	0
302.68143939995207	0.8002420000266284	2	49	1901832.333	87.5	0.8376539999153465	2	0
303.4816813999787	0.8004952999763191	2	49	1901833.337	62.5	1.0416460998822004	2	0
304.2821767	0.8015131999272853	2	49	1901833.796	93.75	0.6996477998327464	1	0
305.0836898998823	0.8022807999514043	2	49	1901834.725	87.5	0.8274751000571996	2	0
305.8859706998337	0.8003529000561684	2	49	1901835.601	81.25	0.9005342000164092	2	0
306.6863235998899	0.7998840999789536	2	49	1901836.064	75	0.5639031999744475	1	0
307.4862076998688	0.8006168999709189	2	49	1901837.218	81.25	0.9173600999638438	2	0
308.28682459983975	0.8017162999603897	2	49	1901837.942	87.5	0.8414563999976963	2	0
309.08854089980014	0.7995783	1	0	0	0	0	0	0
309.8881191997789	0.8006043001078069	2	49	1901839.049	50	0.3469058000482619	1	0
310.6887234998867	0.7993982001207769	2	49	1901839.857	50	0.3538357000797987	1	0
311.48812170000747	0.8006758999545127	2	49	1901840.739	62.5	0.4366069999523461	1	0
312.2887976	0.8029811999294907	2	0	0	0	0	0	0
313.0917787998915	0.7999209999106824	2	0	0	0	0	0	0
313.89169979980215	0.7993316000793129	2	49	1901843.194	68.75	0.48782950011081994	1	0
314.69103139988147	0.8011378000956029	1	49	1901844.279	93.75	0.7737224	2	0
315.49216919997707	0.8024509998504072	2	0	0	0	0	0	0
316.2946201998275	0.8014844001736492	2	49	1901845.595	68.75	0.48590190010145307	1	0
317.0961046000011	0.8018104999791831	2	0	0	0	0	0	0
317.8979150999803	0.7993836000096053	2	49	1901847.581	87.5	0.8690131998155266	2	0
318.6972986999899	0.8011868000030518	2	49	1901848.358	87.5	0.8468745998106897	2	0
319.49848549999297	0.8005636997986585	2	49	1901849.284	68.75	0.9714233998674899	2	0
320.2990491997916	0.8006134000606835	2	49	1901849.966	87.5	0.8527769001666456	2	0
321.0996625998523	0.7987236001063138	2	49	1901850.875	75	0.9611023000907153	2	0
321.8983861999586	0.8002167998347431	2	49	1901851.247	75	0.5343442000448704	1	0
322.69860299979337	0.7993759	2	49	1901852.335	87.5	0.8225289001129568	2	0
323.49797889986075	0.8027820999268442	2	49	1901852.966	87.5	0.6540067999158055	1	0
324.3007609997876	0.8005727001000196	2	49	1901854.042	75	0.9271737	2	0
325.1013336998876	0.8000260998960584	2	49	1901854.835	81.25	0.9199224000331014	2	0
325.9013597997837	0.8009735001251101	2	49	1901855.679	75	0.9637420000508428	2	0
326.7023332999088	0.8021690999157727	2	49	1901856.134	81.25	0.6170113000553101	1	0
327.50450239982456	0.8004554000217468	2	49	1901856.978	87.5	0.6589498000685126	1	0
328.3049577998463	0.8004759999457747	2	49	1901857.918	93.75	0.7987997001037002	2	0
329.1054337997921	0.7986571001820266	2	49	1901858.948	62.5	1.0280060002114624	2	0
329.9040908999741	0.8019577998202294	2	49	1901859.692	68.75	0.9732929999008775	2	0
330.70604869979434	0.8001861001830548	2	49	1901860.09	81.25	0.5700513001065701	1	0
331.5062347999774	0.7988279999699444	2	49	1901860.922	81.25	0.6018751999363303	1	0
332.30506279994734	0.7991213998757303	1	49	1901861.893	93.75	0.7739383999723941	2	0
333.10418419982307	0.801467	2	49	1901862.743	87.5	0.8241732001770288	2	0
333.9056511998642	0.800932	2	49	1901863.325	81.25	0.6056679000612348	1	0
334.70658319978975	0.7999524001497775	1	49	1901864.21	93.75	0.6888046	1	0
335.5065355999395	0.7997889998368919	2	49	1901865.094	93.75	0.7731162998825312	2	0
336.3063245997764	0.8009686002042145	2	49	1901865.613	68.75	0.49290310009382665	1	0
337.10729319998063	0.7984062999021262	2	49	1901866.535	81.25	0.6139761998783797	1	0
337.90569949988276	0.8002991999965161	2	49	1901867.772	62.5	1.0518255999777466	2	0
338.7059986998793	0.8013812999706715	2	49	1901868.458	75	0.9383164	2	0
339.50737999984995	0.7985753000248224	2	49	1901869.022	93.75	0.6999735999852419	1	0
340.30595529987477	0.7998566	1	49	1901869.749	87.5	0.6286527	1	0
341.10581189999357	0.8006578998174518	2	0	0	0	0	0	0
341.9064698	0.7996085	2	0	0	0	0	0	0
342.7060782997869	0.7992146001197398	2	49	1901872.376	87.5	0.8554710000753403	2	0
343.50529289990664	0.8006142999511212	2	0	0	0	0	0	0
344.30590719985776	0.8009957999456674	2	0	0	0	0	0	0
345.1069029998034	0.7997504000086337	2	0	0	0	0	0	0
345.90665339981206	0.8007599001284689	2	0	0	0	0	0	0
346.7074132999405	0.7995577	2	0	0	0	0	0	0
347.50697099999525	0.7992218998260796	2	0	0	0	0	0	0
348.3061928998213	0.7999410000629723	2	0	0	0	0	0	0
349.1061338998843	0.8019250999204814	2	0	0	0	0	0	0
349.9080589998048	0.7981185000389814	2	0	0	0	0	0	0
350.70617749984376	0.8010931999888271	2	49	1901880.42	81.25	0.8999006000813097	2	0
351.5072706998326	0.7983275	2	49	1901881.017	93.75	0.6954890000633895	1	0
352.3055981998332	0.7990075000561774	2	49	1901881.91	93.75	0.7903536001686007	2	0
353.10460569988936	0.8020023999270052	2	49	1901882.829	81.25	0.9100075	2	0
353.90660809981637	0.8028367001097649	2	49	1901883.386	87.5	0.6653581000864506	1	0
354.70944479992613	0.8012709999457002	1	49	1901884.456	75	0.9324999998789281	2	0
355.51071579987183	0.8002275999169797	2	49	1901884.901	81.25	0.5762461	1	0
356.3109433997888	0.8007862002123147	1	49	1901885.904	93.75	0.7787809001747519	2	0
357.1117296000011	0.8012813997920603	2	49	1901886.902	68.75	0.9760487999301404	2	0
357.9130109997932	0.8018285	2	49	1901887.371	87.5	0.6439904000144452	1	0
358.71483949990943	0.7995994000229985	2	49	1901888.399	81.25	0.8702918000053614	2	0
359.51443889993243	0.7988910998683423	2	49	1901888.884	75	0.5555089998524636	1	0
360.31332999980077	0.8018700000829995	2	49	1901889.952	87.5	0.8245877001900226	2	0
361.11519999988377	0.8004423000384122	2	49	1901890.462	75	0.5328687001019716	1	0
361.9156422999222	0.7998941999394447	2	49	1901891.593	87.5	0.8627583999186754	2	0
362.7155364998616	0.7999444000888616	1	49	1901892.079	75	0.5493843001313508	1	0
363.5154808999505	0.8004149999469519	1	49	1901892.987	87.5	0.6576902000233531	1	0
364.31589589989744	0.8037763	1	49	1901893.801	87.5	0.6712805998977274	1	0
365.11967219994403	0.7993957998696715	2	49	1901894.619	93.75	0.6846928000450134	1	0
365.9190679998137	0.7997946001123637	2	49	1901895.519	93.75	0.7858512999955565	2	0
366.71886259992607	0.7992197999265045	2	49	1901896.436	81.25	0.9025677000172436	2	0
367.5180823998526	0.7993829001206905	2	49	1901897.371	62.5	1.0382834000047296	2	0
368.31746529997326	0.8019273998215795	1	49	1901898.228	56.25	1.095956599805504	2	0
369.11939269979484	0.8021277000661939	2	49	1901898.887	75	0.9530435	2	0
369.92152039986104	0.8017238001339138	2	49	1901899.765	62.5	1.029452000046149	2	0
370.72324419999495	0.8016093999613076	2	49	1901900.373	87.5	0.8351069998461753	2	0
371.52485359995626	0.7998150999192148	2	49	1901901.154	93.75	0.8147286998573691	2	0
372.3246686998755	0.7992392000742257	2	49	1901902.078	75	0.9390646000392735	2	0
373.1239078999497	0.8021710999310017	2	49	1901902.805	87.5	0.8667585998773575	2	0
373.9260789998807	0.7988289000932127	2	49	1901903.53	93.75	0.7896930000279099	2	0
374.7249078999739	0.7991319999564439	2	49	1901904.401	87.5	0.8618993000127375	2	0
375.52403989993036	0.8017418999224901	1	49	1901905.361	68.75	1.0223254999145865	2	0
376.32578179985285	0.8019954001065344	2	49	1901905.987	87.5	0.8468178000766784	2	0
377.1277771999594	0.8031081999652088	2	49	1901906.708	100	0.7662382998969406	1	0
377.9308853999246	0.8008009998593479	1	49	1901907.375	87.5	0.6296167999971658	1	0
378.73168639978394	0.7999378000386059	2	49	1901908.558	68.75	1.0124819001648575	2	0
379.53162419982255	0.7993689000140876	1	49	1901908.843	68.75	0.4975311001762748	1	0
380.33099309983663	0.8030251001473516	2	49	1901910.141	68.75	0.9955943999812007	2	0
381.1340182	0.8006952998694032	2	49	1901910.442	68.75	0.4942895998246968	1	0
381.9347134998534	0.8003985	2	49	1901911.567	93.75	0.8178813999984413	2	0
382.7351119997911	0.8009735001251101	2	49	1901912.348	93.75	0.7991761001758277	2	0
383.5360854999162	0.7994716998655349	2	49	1901912.876	75	0.5255565999541432	1	0
384.33555719978176	0.7994727	2	49	1901914.044	81.25	0.8942622002214193	2	0
385.13502989988774	0.7992662000469863	2	49	1901914.819	87.5	0.8697738999035209	2	0
385.9342960999347	0.8015884000342339	2	49	1901915.39	87.5	0.6416902998462319	1	0
386.73588449996896	0.8006514	2	49	1901916.458	81.25	0.9080570000223815	2	0
387.53653589985333	0.7994584001135081	2	49	1901916.919	75	0.5683401001151651	1	0
388.33599429996684	0.8000493999570608	2	49	1901917.518	50	0.36778139998205006	1	0
389.1360436999239	0.8030177999753505	2	49	1901918.983	62.5	1.0328647000715137	2	0
389.93906149989925	0.7980237998999655	2	49	1901919.765	68.75	1.0116604000795633	2	0
390.7370852997992	0.8008594000712037	2	49	1901920.579	62.5	1.027900299988687	2	0
391.5379446998704	0.8001355000305921	2	0	0	0	0	0	0
392.3380802	0.8007543000858277	2	49	1901921.59	62.5	0.4378972998820245	1	0
393.13883449998684	0.8021710999310017	2	49	1901922.827	81.25	0.8742387	2	0
393.94100559991784	0.8011505999602377	2	49	1901923.659	81.25	0.9039406999945641	2	0
394.7421561998781	0.7994379000738263	2	0	0	0	0	0	0
395.5415940999519	0.8008445999585092	1	0	0	0	0	0	0
396.3424386999104	0.8005065000616014	2	0	0	0	0	0	0
397.1429452	0.7992713998537511	2	0	0	0	0	0	0
397.94221659982577	0.8003074	2	0	0	0	0	0	0
398.7425239998847	0.8002434999216348	2	0	0	0	0	0	0
399.54276749980636	0.7997744001913816	2	0	0	0	0	0	0
400.34254189999774	0.7997235998045653	2	49	1901929.935	93.75	0.7785671998281032	2	0
401.1422654998023	0.8009355	2	49	1901930.348	56.25	0.3912047001067549	1	0
401.9432009998709	0.8041183999739587	2	49	1901931.55	93.75	0.7929444999899715	2	0
402.74731939984486	0.8001620001159608	2	49	1901932.002	62.5	0.4410045000258833	1	0
403.5474813999608	0.8027143999934196	1	49	1901933.069	93.75	0.7071923	1	0
404.35019579995424	0.7988499000202864	2	49	1901933.889	100	0.7242463999427855	1	0
405.1490456999745	0.8006902998313308	2	49	1901934.787	87.5	0.8234369999263436	2	0
405.94973599980585	0.7997167999856174	2	49	1901935.663	81.25	0.8986540001351386	2	0
406.74945279979147	0.7993238000199199	2	49	1901936.202	87.5	0.6382712000049651	1	0
407.5487765998114	0.7998633000534028	2	49	1901937.125	100	0.7620262000709772	1	0
408.3486398998648	0.8005852000787854	2	49	1901937.983	93.75	0.8197250999510288	2	0
409.1492250999436	0.8003284998703748	2	49	1901938.968	68.75	1.0044626998715103	2	0
409.94955359981395	0.7991779001895338	2	49	1901939.44	93.75	0.6760444999672472	1	0
410.7487315000035	0.8011874998919666	2	49	1901940.422	87.5	0.8591461998876184	2	0
411.54991899989545	0.8006241000257432	2	49	1901940.938	81.25	0.5734713000711054	1	0
412.3505430999212	0.8013670998625457	2	49	1901941.951	93.75	0.7860588999465108	2	0
413.15191019978374	0.7998469001613557	2	49	1901942.978	68.75	1.0118185000028461	2	0
413.9517570999451	0.8023498000111431	2	49	1901943.456	93.75	0.6899450998753309	1	0
414.75410689995624	0.8004860000219196	2	49	1901944.385	93.75	0.8168083999771625	2	0
415.55459289997816	0.8014776	2	49	1901945.305	75	0.9361157999373972	2	0
416.3560704998672	0.8005131999962032	2	49	1901945.77	81.25	0.5994701001327485	1	0
417.1565836998634	0.7998368	2	49	1901946.759	93.75	0.7886791999917477	2	0
417.95642049983144	0.7994227	1	49	1901947.717	75	0.9464229000732303	2	0
418.7558431997895	0.8003315001260489	2	49	1901948.254	93.75	0.6839621001854539	1	0
419.5561746999156	0.8010849000420421	2	49	1901949.019	87.5	0.6486196999903768	1	0
420.3572595999576	0.8017796999774873	2	49	1901949.819	87.5	0.6474933999124914	1	0
421.1590392999351	0.8015852998942137	2	49	1901950.721	100	0.7479854999110103	1	0
421.9606245998293	0.7998359000775963	2	49	1901951.768	68.75	0.9934960000682622	2	0
422.7604604999069	0.8011238	2	49	1901952.477	81.25	0.9024366999510676	2	0
423.5615842998959	0.7990580999758095	2	49	1901953.23	87.5	0.8544139999430627	2	0
424.3606423998717	0.8001228999346495	2	49	1901953.775	81.25	0.6002855999395251	1	0
425.16076529980637	0.8045787001028657	2	49	1901954.872	81.25	0.8971829	2	0
425.96534399990924	0.7994222999550402	2	49	1901955.419	87.5	0.6391421998851001	1	0
426.7647662998643	0.7984078000299633	2	49	1901956.545	75	0.9662685000803322	2	0
427.56317409989424	0.7995821998920292	2	49	1901956.999	81.25	0.6220915999729186	1	0
428.36275629978627	0.8013026001863182	2	49	1901957.868	93.75	0.6914811001624912	1	0
429.1640588999726	0.7999366000294685	2	49	1901958.844	87.5	0.8660444999113679	2	0
429.96399550000206	0.8014745998661965	2	49	1901959.719	75	0.9403744998853654	2	0
430.76547009986825	0.8005363999400288	2	49	1901960.194	81.25	0.6146076999139041	1	0
431.5660064998083	0.800281	1	49	1901961.068	93.75	0.6881709001027048	1	0
432.36628749989904	0.8006100999191403	2	49	1901962.107	75	0.9267208999954164	2	0
433.1668975998182	0.8031638	2	49	1901962.93	75	0.9493799000047147	2	0
433.97006139997393	0.8000399000011384	2	49	1901963.417	87.5	0.6331945999991149	1	0
434.77010129997507	0.7990712998434901	2	49	1901964.315	100	0.7311026998795569	1	0
435.56917259981856	0.7990934001281857	2	49	1901965.058	93.75	0.6751439000945538	1	0
436.36826599994674	0.8001714998390526	2	49	1901966.146	75	0.9632600999902934	2	0
437.1684374997858	0.8024658001959324	2	49	1901966.597	81.25	0.6140745000448078	1	0
437.9709032999817	0.8015762998256832	2	49	1901967.227	62.5	0.4414378998335451	1	0
438.7724795998074	0.7996591001283377	1	49	1901968.453	87.5	0.8660116	2	0
439.57213869993575	0.7985417998861521	2	49	1901969.12	100	0.7334515	1	0
440.3706804998219	0.8018937001470476	2	49	1901970.218	62.5	1.0336070000194013	2	0
441.17257419996895	0.8004392	2	49	1901970.711	100	0.7242932999506593	1	0
441.97301339986734	0.8005812000483274	2	49	1901971.642	87.5	0.8546317000873387	2	0
442.77359459991567	0.8004647998604923	2	49	1901972.529	75	0.9409522998612374	2	0
443.57405939977616	0.8010089001618326	2	49	1901973.075	93.75	0.6864106000866741	1	0
444.3750683	0.8010030998848379	2	49	1901974.002	93.75	0.8131409999914467	2	0
445.17607139982283	0.8001656	2	49	1901975.036	62.5	1.0455046000424773	2	0
445.9762369999662	0.8011827	2	0	0	0	0	0	0
446.7774196998216	0.8028929999563843	2	49	1901976.175	81.25	0.5835122000426054	1	0
447.5803127	0.7984283	2	49	1901976.921	75	0.5263127000071108	1	0
448.37874099984765	0.8000085	2	49	1901977.851	87.5	0.6584369000047445	1	0
449.1787494998425	0.8001669000368565	2	49	1901978.881	81.25	0.8885602001100779	2	0
449.9789163998794	0.7979266999755055	1	49	1901979.485	93.75	0.6917582999449223	1	0
450.7768430998549	0.7990777001250535	2	49	1901980.929	25	1.3375115001108497	2	0
451.57592079997994	0.8000095998868346	1	49	1901981.538	50	1.1475651999935508	2	0
452.3759303998668	0.7987921	2	49	1901981.937	100	0.7467583999969065	1	0
453.1747224999126	0.8013835998717695	2	49	1901982.824	87.5	0.8352496998850256	2	0
453.9761060997844	0.8007045001722872	2	49	1901983.279	68.75	0.4889236001763493	1	0
454.77681059995666	0.7992551999632269	2	49	1901984.453	87.5	0.8622528000269085	2	0
455.5760657999199	0.8022811999544501	2	49	1901985.281	81.25	0.8909229000564665	2	0
456.37834699987434	0.8016015999019146	2	49	1901986.088	81.25	0.8955242000520229	2	0
457.17994859977625	0.8019702001474798	2	49	1901986.917	81.25	0.9228723000269383	2	0
457.98191879992373	0.7999841999262571	2	49	1901987.67	81.25	0.8740145000629127	2	0
458.781903	0.8000412001274526	2	49	1901988.497	81.25	0.9010398001410067	2	0
459.58194419997744	0.8003143998794258	2	49	1901989.389	68.75	0.9933598998468369	2	0
460.38225859985687	0.8005935000255704	2	49	1901990.134	75	0.9378909999504685	2	0
461.18285209988244	0.8003038999158889	2	49	1901990.937	75	0.9403953000437468	2	0
461.9831559997983	0.8003505000378937	2	49	1901991.464	87.5	0.6670141001231968	1	0
462.7835064998362	0.8005659	2	49	1901992.257	87.5	0.6589569000061601	1	0
463.58407239988446	0.8004349	2	49	1901993.083	93.75	0.6850465999450535	1	0
464.3845072998665	0.8015374999959022	2	49	1901993.887	93.75	0.6878527000080794	1	0
465.18604479986243	0.7995388000272214	2	49	1901994.608	81.25	0.6073595001362264	1	0
465.98558359988965	0.7990296001080424	2	49	1901995.445	87.5	0.6452075999695808	1	0
466.7846131999977	0.8017579999286681	2	49	1901996.18	81.25	0.5817049997858703	1	0
467.58637119992636	0.7991076000034809	2	49	1901996.999	81.25	0.5981823999900371	1	0
468.38547879992984	0.7999106000643224	2	49	1901997.898	93.75	0.6980113999452442	1	0
469.18538939999416	0.7996342999394983	2	49	1901998.742	100	0.7428374998271465	1	0
469.98502369993366	0.8007556998636574	2	49	1901999.652	87.5	0.8524792999960482	2	0
470.7857793997973	0.8005978	2	49	1902000.472	81.25	0.8717655001673847	2	0
471.58637719997205	0.8006319999694824	2	49	1902001.337	81.25	0.9368908000178635	2	0
472.38700919994153	0.8048604999203235	2	49	1902002.103	81.25	0.9015849998686463	2	0
473.19186969986185	0.7993865	2	49	1902003.044	62.5	1.0379183001350611	2	0
473.9912561997771	0.8008071000222117	2	49	1902003.798	68.75	0.9921370001975447	2	0
474.79206329979934	0.8000618000514805	2	49	1902004.512	81.25	0.9055281	2	0
475.5921250998508	0.8009409999940544	2	49	1902005.258	87.5	0.8516148999333382	2	0
476.3930660998449	0.8002856001257896	2	49	1902006.031	87.5	0.8233996999915689	2	0
477.19335169997066	0.8032155998516828	1	49	1902006.774	100	0.7661271998658776	1	0
477.99656729982235	0.8003162001259625	2	49	1902007.492	93.75	0.6810419000685215	1	0
478.7968834999483	0.8017030998598784	2	49	1902008.461	87.5	0.8504103999584913	2	0
479.5985865998082	n/a	0	49	1902009.144	100	0.7310763001441956	1	0