onset	duration	cue	constant1	timestamp	stimulus_coherence	response_time	response	constant2
20.660147446207702	0.8296892996877432	2	49	2162165.45	93.75	0.8473307997919619	2	0
21.489836745895445	0.8331607	2	49	2162166.088	87.5	0.6558509999886155	1	0
22.32299744617194	0.8372013	2	49	2162166.876	81.25	0.6106858998537064	1	0
23.16019874578342	0.8289685002528131	2	49	2162167.826	93.75	0.7225514003075659	1	0
23.98916724603623	0.8326567001640797	2	49	2162168.788	93.75	0.8564761001616716	2	0
24.82182394620031	0.8239342998713255	2	49	2162169.57	93.75	0.8050619997084141	2	0
25.645758246071637	0.8233713	2	49	2162170.467	87.5	0.8781293998472393	2	0
26.469129546079785	0.8269364000298083	2	49	2162171.077	87.5	0.6646104	1	0
27.296065946109593	0.8305599996820092	2	49	2162171.919	87.5	0.6797124999575317	1	0
28.126625945791602	0.8172818003222346	2	49	2162172.707	87.5	0.6371754	1	0
28.943907746113837	0.8283750996924937	1	49	2162173.614	93.75	0.7269375999458134	1	0
29.77228284580633	0.8172773001715541	2	49	2162174.439	93.75	0.7239531	1	0
30.589560145977885	0.8257357999682426	1	49	2162175.223	93.75	0.6902589001692832	1	0
31.415295945946127	0.8277969998307526	2	49	2162176.023	87.5	0.6647544000297785	1	0
32.24309294577688	0.8240253999829292	2	49	2162176.872	87.5	0.6859243	1	0
33.06711834575981	0.8256112	2	49	2162177.741	93.75	0.7312095002271235	1	0
33.89272954594344	0.8264746000058949	2	49	2162178.597	100	0.7610589	1	0
34.719204145949334	0.8158129998482764	2	49	2162179.404	100	0.7417957000434399	1	0
35.53501714579761	0.8249594001099467	2	49	2162180.149	87.5	0.6709775002673268	1	0
36.35997654590756	0.8263455000706017	2	49	2162180.989	87.5	0.686194	1	0
37.18632204597816	0.8202108000405133	2	49	2162181.825	93.75	0.6959305	1	0
38.00653284601867	0.8292723000049591	2	49	2162182.772	93.75	0.8226421000435948	2	0
38.83580514602363	0.8373417998664081	2	49	2162183.572	100	0.7937556998804212	1	0
39.67314694589004	0.8241961002349854	2	49	2162184.349	93.75	0.7333418000489473	1	0
40.497343046125025	0.8259087996557355	2	49	2162185.222	100	0.7823282000608742	1	0
41.32325184578076	0.8259568000212312	2	49	2162186.062	93.75	0.7960111000575125	2	0
42.14920864580199	0.8302994002588093	2	49	2162186.855	100	0.7629380002617836	1	0
42.97950805	0.8269349001348019	2	49	2162187.66	93.75	0.7376648997887969	1	0
43.80644295	0.8193204998970032	2	49	2162188.434	87.5	0.6847065	1	0
44.625763446092606	0.8309395997785032	2	49	2162189.277	93.75	0.7085509998723865	1	0
45.45670304587111	0.8304925002157688	2	49	2162190.167	100	0.7678051	1	0
46.28719554608688	0.8196622999384999	2	49	2162191.119	87.5	0.8891536998562515	2	0
47.10685784602538	0.8227866999804974	2	49	2162191.959	81.25	0.9094961998052895	2	0
47.929644546005875	0.8253342998214066	2	49	2162192.788	81.25	0.9156526001170278	2	0
48.75497884582728	0.8286170000210404	2	49	2162193.511	93.75	0.8136137002147734	2	0
49.58359584584832	0.8210432999767363	2	49	2162194.313	100	0.7868959000334144	1	0
50.40463914582506	0.8258622	2	49	2162195.053	93.75	0.7057058000937104	1	0
51.23050134582445	0.8249794002622366	2	49	2162196.172	68.75	0.9988384	2	0
52.05548074608669	0.8215622999705374	2	49	2162196.705	93.75	0.7066736998967826	1	0
52.877043046057224	0.8275426998734474	2	49	2162197.57	100	0.7504436997696757	1	0
53.70458574593067	0.8264957000501454	1	0	0	0	0	0	0
54.53108144598082	0.8208286999724805	2	49	2162199.348	87.5	0.8745740000158548	2	0
55.35191015	0.8305518999695778	2	49	2162200.026	93.75	0.7316081998869777	1	0
56.182462045922875	0.8288445002399385	2	49	2162200.856	93.75	0.7311788001097739	1	0
57.011306546162814	0.8263987000100315	2	49	2162201.678	93.75	0.7242931998334825	1	0
57.837705246172845	0.8219563998281956	1	0	0	0	0	0	0
58.65966164600104	0.8258138000965118	2	49	2162203.272	87.5	0.6690988000482321	1	0
59.48547544609755	0.8292924999259412	1	0	0	0	0	0	0
60.314767946023494	0.8244004999287426	2	49	2162205.073	93.75	0.8156769000925124	2	0
61.13916844595224	0.8275216999463737	2	49	2162205.937	87.5	0.8554572002030909	2	0
61.96669014589861	0.8254192001186311	2	49	2162206.751	93.75	0.8411020999774337	2	0
62.79210934601724	0.8229144001379609	2	49	2162207.594	87.5	0.8586968998424709	2	0
63.61502375	0.8254950996488333	2	49	2162208.43	87.5	0.8718257998116314	2	0
64.44051884580404	0.8222900000400841	1	0	0	0	0	0	0
65.26280884584412	0.8193006999790668	2	49	2162210.187	75	0.9812421002425253	2	0
66.08210954582319	0.8246059999801219	2	49	2162210.923	81.25	0.8977550999261439	2	0
66.90671554580331	0.8234220002777874	2	49	2162211.764	81.25	0.9142296	2	0
67.73013755	0.8247718000784516	2	49	2162212.515	93.75	0.8418737	2	0
68.55490934615955	0.8215469997376204	1	49	2162213.516	68.75	1.0181779996491969	2	0
69.37645634589717	0.8276831000111997	2	0	0	0	0	0	0
70.20413944590837	0.8223566999658942	1	49	2162214.843	87.5	0.6958313002251089	1	0
71.02649614587426	0.8247278002090752	2	49	2162215.973	68.75	1.0035637998953462	2	0
71.85122394608334	0.8191986996680498	2	49	2162216.435	87.5	0.6409041997976601	1	0
72.67042264575139	0.8248406001366675	2	49	2162217.619	68.75	1.0057841003872454	2	0
73.49526324588805	0.8221908	2	49	2162218.184	100	0.7458144002594054	1	0
74.31745405	0.8180452999658883	1	0	0	0	0	0	0
75.13549934606999	0.8260971000418067	1	0	0	0	0	0	0
75.96159645	0.8285435996949673	2	49	2162220.841	81.25	0.9364755996502936	2	0
76.79014004580677	0.8267113999463618	2	49	2162221.481	100	0.7481553	1	0
77.61685144575313	0.8223434002138674	1	0	0	0	0	0	0
78.43919485	0.8280735998414457	2	49	2162223.109	93.75	0.7271460997872055	1	0
79.26726844580844	0.8190762000158429	2	49	2162223.988	100	0.7777971001341939	1	0
80.08634464582428	0.8261113003827631	1	0	0	0	0	0	0
80.91245594620705	0.8292684997431934	2	49	2162225.577	93.75	0.7219566996209323	1	0
81.74172444595024	0.8110549999400973	2	49	2162226.626	81.25	0.9417965998873115	2	0
82.55277944589034	0.8255850998684764	2	49	2162227.236	93.75	0.7400170001201332	1	0
83.37836454575881	0.8251615003682673	2	49	2162228.252	81.25	0.9310340001247823	2	0
84.20352604612708	0.8259119000285864	2	49	2162228.964	93.75	0.8179767997935414	2	0
85.02943794615567	0.8225136999972165	1	49	2162229.917	81.25	0.9448807998560369	2	0
85.85195164615288	0.8257522	2	0	0	0	0	0	0
86.67770384578034	0.8291381001472473	1	0	0	0	0	0	0
87.50684194592759	0.8216907000169158	2	49	2162232.261	93.75	0.8117698	2	0
88.32853265	0.8179255002178252	2	49	2162233.133	87.5	0.8620763998478651	2	0
89.14645814616233	0.8259605998173356	2	49	2162233.978	87.5	0.8888844000175595	2	0
89.97241874597967	0.8212815001606941	2	49	2162234.787	87.5	0.8722147000953555	2	0
90.79370024614036	0.8272166000679135	2	49	2162235.396	87.5	0.6599042997695506	1	0
91.62091684620827	0.8262777999043465	1	0	0	0	0	0	0
92.44719464611262	0.8146786000579596	1	0	0	0	0	0	0
93.26187324617058	0.8225869997404516	2	49	2162237.873	87.5	0.6687674997374415	1	0
94.08446024591103	0.8253314001485705	2	49	2162238.906	87.5	0.8792546	2	0
94.90979165	0.8154159998521209	1	0	0	0	0	0	0
95.72520764591172	0.8228909000754356	2	49	2162240.435	100	0.7669408000074327	1	0
96.54809854598716	0.8210346000269055	2	49	2162241.254	100	0.7630281997844577	1	0
97.36913314601406	0.8268880001269281	2	49	2162242.05	93.75	0.7380951000377536	1	0
98.19602114614099	0.8285557	2	49	2162242.808	87.5	0.6688242	1	0
99.02457684604451	0.8173516998067498	1	0	0	0	0	0	0
99.84192854585126	0.8255028002895415	2	49	2162244.613	93.75	0.8280886001884937	2	0
100.6674313461408	0.8298005000688136	2	0	0	0	0	0	0
101.49723184620962	0.8188686	2	49	2162246.231	93.75	0.7906665997579694	2	0
102.31610044604167	0.8307651998475194	2	49	2162246.901	81.25	0.6418266999535263	1	0
103.14686564588919	0.8181350999511778	2	49	2162247.777	93.75	0.6872243001125753	1	0
103.96500074584037	0.8252746001817286	2	49	2162248.909	68.75	1.0009902003221214	2	0
104.7902753460221	0.8275417000986636	2	49	2162249.683	81.25	0.9497535000555217	2	0
105.61781704612076	0.8237573998048902	2	49	2162250.244	87.5	0.6832514996640384	1	0
106.44157444592565	0.82345	2	49	2162251.184	93.75	0.7996645	2	0
107.26502444595098	0.8237759000621736	2	49	2162252.02	93.75	0.8120873002335429	2	0
108.08880034601316	0.8278746	2	49	2162252.785	100	0.7534475000575185	1	0
108.91667494596913	0.8217139998450875	2	49	2162253.732	87.5	0.8724278998561203	2	0
109.73838894581422	0.8203088003210723	2	49	2162254.465	100	0.7838383000344038	1	0
110.5586977461353	0.8244711	2	49	2162255.468	75	0.9664975	2	0
111.38316884590313	0.8264389000833035	2	49	2162256.226	81.25	0.9000595002435148	2	0
112.20960774598643	0.8262481	2	49	2162256.922	100	0.7699869000352919	1	0
113.03585584601387	0.8295388999395072	2	49	2162257.808	93.75	0.8294774000532925	2	0
113.86539474595338	0.8212995999492705	2	49	2162258.761	75	0.9529834999702871	2	0
114.68669434590265	0.8221613001078367	2	49	2162259.365	93.75	0.7356612998992205	1	0
115.50885564601049	0.8303267997689545	2	49	2162260.033	75	0.5816282997839153	1	0
116.33918244577944	0.8185094	2	49	2162261.008	93.75	0.7262659003026783	1	0
117.1576918	0.8242131997831166	2	49	2162261.679	75	0.5782723999582231	1	0
117.98190504591912	0.8241750001907349	2	49	2162262.407	68.75	0.48250450007617474	1	0
118.80608004610986	0.8216667999513447	2	49	2162263.343	81.25	0.5942376996390522	1	0
119.6277468460612	0.8316317000426352	2	49	2162264.401	93.75	0.8307046997360885	2	0
120.45937854610384	0.8194963000714779	2	49	2162265.239	93.75	0.8370102997869253	2	0
121.27887484617531	0.8236166997812688	2	49	2162265.935	93.75	0.7137752999551594	1	0
122.10249154595658	0.8295257999561727	2	49	2162266.758	93.75	0.7132056998088956	1	0
122.93201734591275	0.8267926000989974	2	49	2162267.686	93.75	0.8115953002125025	2	0
123.75880994601175	0.8262709998525679	2	49	2162268.482	100	0.7807299001142383	1	0
124.58508094586432	0.8246825002133846	2	49	2162269.413	87.5	0.8849749001674354	2	0
125.4097634460777	0.8202558998018503	2	49	2162270.298	75	0.9458177997730672	2	0
126.23001934587955	0.8275794	2	49	2162271.166	75	0.9931649998761714	2	0
127.05759874591604	0.8163725999183953	2	49	2162272.041	68.75	1.0410660998895764	2	0
127.87397134583443	0.8196875001303852	2	49	2162272.625	93.75	0.8086781003512442	2	0
128.69365884596482	0.8124353000894189	2	49	2162273.406	100	0.7691325000487268	1	0
129.50609414605424	0.8159674997441471	1	0	0	0	0	0	0
130.32206164579839	0.8262384003028274	2	49	2162274.88	81.25	0.6147628002800047	1	0
131.1483000461012	0.8149870997294784	2	49	2162275.719	81.25	0.6284101000055671	1	0
131.9632871458307	0.8298352002166212	2	49	2162276.579	87.5	0.6724423002451658	1	0
132.7931223460473	0.8236640999093652	2	49	2162277.403	87.5	0.6669499	1	0
133.61678644595668	0.8236253000795841	2	49	2162278.165	81.25	0.6049952	1	0
134.44041174603626	0.8291572998277843	2	49	2162278.961	75	0.5775601	1	0
135.26956904586405	0.8155175000429153	2	49	2162279.974	100	0.7613001000136137	1	0
136.08508654590696	0.8235025000758469	2	49	2162280.776	100	0.7478171000257134	1	0
136.9085890459828	0.8248140001669526	2	49	2162281.518	87.5	0.6668453998863697	1	0
137.73340304614976	0.8208315996453166	2	49	2162282.391	93.75	0.7152629997581244	1	0
138.55423464579508	0.8251348002813756	2	49	2162283.238	93.75	0.7408386999741197	1	0
139.37936944607645	0.8264154000207782	2	49	2162284.093	100	0.7706714998930693	1	0
140.20578484609723	0.8252133000642061	1	0	0	0	0	0	0
141.03099814616144	0.8214263999834657	1	49	2162285.991	68.75	1.017140899784863	2	0
141.8524245461449	0.8256929996423423	2	0	0	0	0	0	0
142.67811754578725	0.8219811003655195	2	49	2162287.354	93.75	0.7329755001701415	1	0
143.50009864615276	0.8255186998285353	2	49	2162288.214	100	0.7710134997032583	1	0
144.3256173459813	0.8211941001936793	2	49	2162289.067	93.75	0.7986344	2	0
145.14681144617498	0.8267897	2	49	2162289.979	87.5	0.8895541997626424	2	0
145.97360114613548	0.8340689	2	49	2162290.654	93.75	0.7379681998863816	1	0
146.8076700461097	0.8238514000549912	2	49	2162291.475	93.75	0.7245199996978045	1	0
147.6315214461647	0.8267802996560931	2	49	2162292.396	93.75	0.8218028997071087	2	0
148.4583017458208	0.8186826999299228	2	49	2162293.134	93.75	0.7331084003672004	1	0
149.2769844457507	0.8210120000876486	2	49	2162294.003	100	0.7834846000187099	1	0
150.09799644583836	0.8312238003127277	2	49	2162294.85	93.75	0.8093493	2	0
150.9292202461511	0.8329445999115705	2	49	2162295.635	100	0.7631321996450424	1	0
151.76216484606266	0.8259537001140416	2	49	2162296.467	100	0.7624073000624776	1	0
152.5881185461767	0.8226405000314116	2	49	2162297.471	81.25	0.9402938997372985	2	0
153.4107590462081	0.8289969996549189	2	49	2162298.16	93.75	0.8065939997322857	2	0
154.23975604586303	0.8185895001515746	1	0	0	0	0	0	0
155.0583455460146	0.8140210998244584	2	49	2162299.718	93.75	0.7171573000960052	1	0
155.87236664583907	0.8169975001364946	2	49	2162300.583	100	0.7673965003341436	1	0
156.68936414597556	0.8238889002241194	2	49	2162301.328	87.5	0.6961391000077128	1	0
157.51325304619968	0.8214851999655366	1	0	0	0	0	0	0
158.33473824616522	0.8286895	2	49	2162303.046	100	0.7689532996155322	1	0
159.1634277459234	0.8218288999050856	1	0	0	0	0	0	0
159.98525664582849	0.8130016000941396	2	49	2162304.597	87.5	0.6686503002420068	1	0
160.79825824592263	0.8230089000426233	2	49	2162305.58	93.75	0.8393713999539614	2	0
161.62126714596525	0.8191658002324402	2	49	2162306.443	87.5	0.8785235001705587	2	0
162.4404329461977	0.8169772997498512	2	49	2162307.291	81.25	0.9081584	2	0
163.25741024594754	0.8212828	1	0	0	0	0	0	0
164.0786930457689	0.8237904002889991	2	49	2162308.753	93.75	0.7319963001646101	1	0
164.9024834460579	0.8252845997922122	2	49	2162309.688	93.75	0.8424192001111805	2	0
165.7277680458501	0.8237807000987232	2	49	2162310.761	62.5	1.090026100166142	2	0
166.55154874594882	0.8277743998914957	2	49	2162311.317	93.75	0.8221964999102056	2	0
167.37932314584032	0.8205609	2	49	2162312.104	100	0.7817374002188444	1	0
168.1998840458691	0.8207038003019989	2	49	2162312.852	93.75	0.7090328000485897	1	0
169.0205878461711	0.8218286000192165	2	49	2162313.933	75	0.9693786	2	0
169.84241644619033	0.8241039998829365	2	49	2162314.486	93.75	0.7004286996088922	1	0
170.66652044607326	0.8188319997861981	2	49	2162315.349	93.75	0.7395162000320852	1	0
171.48535244585946	0.8291198001243174	2	49	2162316.218	100	0.7898204000666738	1	0
172.31447224598378	0.8215001001954079	2	49	2162317.233	75	0.9754551001824439	2	0
173.1359723461792	0.8271961999125779	2	49	2162318.096	68.75	1.017296299804002	2	0
173.96316854609177	0.8152286000549793	2	49	2162318.774	87.5	0.8678701999597251	2	0
174.77839714614674	0.8254269999451935	2	49	2162319.496	100	0.7746532997116446	1	0
175.60382414609194	0.8230820996686816	2	49	2162320.287	93.75	0.740292	1	0
176.42690624576062	0.8258129004389048	2	49	2162321.149	100	0.7794648	1	0
177.25271914619952	0.8241427997127175	1	0	0	0	0	0	0
178.07686194591224	0.8190263002179563	1	0	0	0	0	0	0
178.8958882461302	0.8265700000338256	2	49	2162323.499	87.5	0.6604226999916136	1	0
179.72245824616402	0.8261004998348653	2	49	2162324.497	93.75	0.8320006998255849	2	0
180.5485587459989	0.8226942	2	49	2162325.41	81.25	0.9187257997691631	2	0
181.37125294608995	0.8214643998071551	2	49	2162326.159	87.5	0.8453226001001894	2	0
182.1927173458971	0.8131122998893261	1	0	0	0	0	0	0
183.00582964578643	0.8235697001218796	2	49	2162327.772	93.75	0.8234946001321077	2	0
183.8293993459083	0.8227932001464069	1	0	0	0	0	0	0
184.65219254605472	0.8259196	2	49	2162329.45	87.5	0.8553046998567879	2	0
185.4781121457927	0.8150205002166331	2	49	2162330.285	87.5	0.8642404000274837	2	0
186.29313264600933	0.8215545	2	49	2162331.149	81.25	0.9126595999114215	2	0
187.1146871461533	0.8190417997539043	2	49	2162331.889	93.75	0.8317179000005126	2	0
187.9337289459072	0.8204435999505222	2	49	2162332.692	93.75	0.8157867998816073	2	0
188.75417254585773	0.8189055002294481	2	49	2162333.558	87.5	0.8611795003525913	2	0
189.57307804608718	0.8292410001158714	2	49	2162334.393	87.5	0.8774288	2	0
190.40231904620305	0.8301579998806119	2	49	2162335.187	93.75	0.8422294999472797	2	0
191.23247704608366	0.8248005998320878	2	49	2162335.902	93.75	0.7269170000217855	1	0
192.05727764591575	0.8301305002532899	2	49	2162336.835	93.75	0.8345145001076162	2	0
192.88740814616904	0.8201567996293306	2	49	2162337.65	93.75	0.8203018000349402	2	0
193.70756494579837	0.8232264001853764	2	49	2162338.493	93.75	0.8422155003063381	2	0
194.53079134598374	0.8212997000664473	2	49	2162339.371	81.25	0.8977915002033114	2	0
195.3520910460502	0.8147907	2	49	2162340.153	87.5	0.8585446998476982	2	0
196.16688174614683	0.8215943998657167	2	49	2162340.886	100	0.7760568996891379	1	0
196.98847614601254	0.8291858001612127	2	49	2162341.695	100	0.7642347998917103	1	0
197.81766194617376	0.8206271999515593	2	49	2162342.589	93.75	0.8281411998905241	2	0
198.63828914612532	0.8175690998323262	2	49	2162343.359	100	0.7775875	1	0
199.45585824595764	0.8118115998804569	2	49	2162344.277	87.5	0.8780441000126302	2	0
200.2676698458381	0.8184327003546059	1	0	0	0	0	0	0
201.0861025461927	0.8202393995597959	2	49	2162345.648	81.25	0.6187718	1	0
201.9063419457525	0.8193441000767052	2	49	2162346.48	81.25	0.6304329000413418	1	0
202.7256860458292	0.8236267999745905	2	49	2162347.465	100	0.7961774999275804	1	0
203.5493128458038	0.8238722002133727	2	49	2162348.394	81.25	0.9017137000337243	2	0
204.37318504601717	0.8194198999553919	2	49	2162349.165	87.5	0.8486983	2	0
205.19260494597256	0.8260711999610066	2	49	2162350.01	87.5	0.8744065999053419	2	0
206.01867614593357	0.8258020002394915	2	49	2162350.788	93.75	0.8264663000591099	2	0
206.84447814617306	0.8239630996249616	2	49	2162351.564	100	0.7769276	1	0
207.66844124579802	0.8225938002578914	2	49	2162352.446	93.75	0.8347508003935218	2	0
208.4910350460559	0.8194947997108102	2	49	2162353.182	100	0.7479377998970449	1	0
209.31052984576672	0.8201809003949165	2	49	2162353.967	93.75	0.71364	1	0
210.13071074616164	0.8191692996770144	2	49	2162354.748	87.5	0.6744035999290645	1	0
210.94988004583865	0.8208866999484599	2	49	2162355.586	93.75	0.6932597002014518	1	0
211.7707667457871	0.8262328002601862	2	49	2162356.349	81.25	0.6354299001395702	1	0
212.5969995460473	0.8247736999765038	2	49	2162357.293	100	0.7532052998431027	1	0
213.4217732460238	0.8190619	2	49	2162358.035	87.5	0.6703829001635313	1	0
214.24083514604717	0.8171628997661173	2	49	2162358.842	87.5	0.6586545999161899	1	0
215.0579980458133	0.8204152001999319	2	49	2162359.748	100	0.7471904000267386	1	0
215.87841324601322	0.8256703000515699	2	49	2162360.434	81.25	0.6131802001036704	1	0
216.7040835460648	0.8257111	2	49	2162361.344	93.75	0.6971908998675644	1	0
217.52979464596137	0.8257877002470195	1	0	0	0	0	0	0
218.3555823462084	0.8178680995479226	2	49	2162363.049	100	0.7507358998991549	1	0
219.17345044575632	0.8236295003443956	2	49	2162363.828	93.75	0.7118989	1	0
219.9970799461007	0.8222479000687599	2	49	2162364.681	93.75	0.7412930997088552	1	0
220.81932784616947	0.8186059999279678	2	49	2162365.522	100	0.7601154996082187	1	0
221.63793384609744	0.8174072001129389	2	49	2162366.528	75	0.9475614996626973	2	0
222.45534104621038	0.8170352997258306	2	49	2162367.079	87.5	0.6811157995834947	1	0
223.2723763459362	0.8273138999938965	1	0	0	0	0	0	0
224.0996902459301	0.8246619999408722	2	49	2162368.782	93.75	0.7399006998166442	1	0
224.92435224587098	0.8276106999255717	1	0	0	0	0	0	0
225.75196294579655	0.8224874003790319	2	49	2162370.418	93.75	0.7236323	1	0
226.57445034617558	0.8252662997692823	1	49	2162371.562	68.75	1.0450872997753322	2	0
227.39971664594486	0.8169320002198219	2	0	0	0	0	0	0
228.21664864616469	0.8071395996958017	2	49	2162372.87	93.75	0.7101018000394106	1	0
229.0237882458605	0.8108252002857625	2	49	2162373.714	100	0.7472752002067864	1	0
229.83461344614625	0.8124166000634432	2	49	2162374.669	81.25	0.8920711996033788	2	0
230.6470300462097	0.8169729998335242	2	49	2162375.396	93.75	0.8058310998603702	2	0
231.46400304604322	0.8134437999688089	2	49	2162376.217	93.75	0.8104773997329175	2	0
232.27744684601203	0.8064203001558781	2	49	2162376.854	87.5	0.6342667997814715	1	0
233.0838671461679	0.8141397996805608	2	49	2162377.72	93.75	0.6938126999884844	1	0
233.89800694584846	0.8115986003540456	2	49	2162378.514	87.5	0.6729725999757648	1	0
234.7096055462025	0.8158509996719658	1	0	0	0	0	0	0
235.52545654587448	0.8171335998922586	2	49	2162380.18	93.75	0.7118879002518952	1	0
236.34259014576674	0.8177031	2	49	2162380.952	87.5	0.6662425003014505	1	0
237.16029324615374	0.8172951997257769	2	49	2162382.021	81.25	0.9179735998623073	2	0
237.97758844587952	0.8137894002720714	2	49	2162382.764	87.5	0.8434788002632558	2	0
238.7913778461516	0.8191897999495268	2	49	2162383.66	81.25	0.9258556999266148	2	0
239.61056764610112	0.8122815	2	49	2162384.238	93.75	0.6843818998895586	1	0
240.42284914618358	0.8154193	2	49	2162385.19	93.75	0.8242436996661127	2	0
241.23826844617724	0.8164329999126494	2	49	2162386.056	87.5	0.8749492997303605	2	0
242.0547014460899	0.8157236999832094	2	49	2162386.825	93.75	0.8275124998763204	2	0
242.8704251460731	0.8178427000530064	1	0	0	0	0	0	0
243.6882678461261	0.8208778998814523	2	49	2162388.389	100	0.7579757999628782	1	0
244.50914574600756	0.8130128001794219	2	49	2162389.267	93.75	0.8150387997739017	2	0
245.32215854618698	0.814069	2	49	2162390.046	100	0.7812593998387456	1	0
246.1362275457941	0.8203886	2	49	2162390.896	93.75	0.8169403001666069	2	0
246.95661614602432	0.8127183001488447	1	0	0	0	0	0	0
247.76933444617316	0.8140924996696413	2	49	2162392.581	87.5	0.8690764997154474	2	0
248.5834269458428	0.8166114999912679	2	49	2162393.328	93.75	0.8022484	2	0
249.40003844583407	0.8202141001820564	2	49	2162394.649	31.25	1.306317400187254	2	0
250.22025254601613	0.8164395000785589	1	0	0	0	0	0	0
251.0366920460947	0.8144696997478604	2	49	2162395.858	87.5	0.8786430996842682	2	0
251.85116174584255	0.8158324002288282	1	0	0	0	0	0	0
252.66699414607137	0.8145834999158978	2	49	2162397.385	100	0.7752712997607887	1	0
253.48157764598727	0.8156833001412451	2	49	2162398.281	87.5	0.8568679997697473	2	0
254.29726094612852	0.8196588000282645	2	49	2162399.19	75	0.9501970997080207	2	0
255.11691974615678	0.8176665999926627	2	49	2162399.99	81.25	0.9306826000101864	2	0
255.93458634614944	0.8159930999390781	2	49	2162400.605	93.75	0.7278443998657167	1	0
256.7505794460885	0.8086915998719633	2	49	2162401.667	75	0.9739800998941064	2	0
257.5592710459605	0.8193478998728096	2	49	2162402.265	100	0.7634326000697911	1	0
258.3786189458333	0.8112556003034115	2	49	2162403.153	93.75	0.8318227999843657	2	0
259.1898745461367	0.8067668997682631	2	49	2162403.969	87.5	0.8366481997072697	2	0
259.99664144590497	0.8123745	2	49	2162404.884	75	0.9449507002718747	2	0
260.8090159459971	0.8157681999728084	1	0	0	0	0	0	0
261.6247841459699	0.8118917997926474	2	49	2162406.349	100	0.7817311999388039	1	0
262.43667594576254	0.8062502001412213	2	49	2162407.205	93.75	0.8252797001041472	2	0
263.24292614590377	0.8137572002597153	2	49	2162407.976	93.75	0.7906508	2	0
264.0566833461635	0.8110817	1	49	2162408.928	81.25	0.9289650996215641	2	0
264.86776504619047	0.8159080999903381	1	0	0	0	0	0	0
265.6836731461808	0.8160206996835768	2	49	2162410.411	100	0.7841686997562647	1	0
266.4996938458644	0.8171311002224684	2	49	2162411.232	93.75	0.7899702000431716	2	0
267.31682494608685	0.8124719997867942	2	49	2162412.021	100	0.7609353000298142	1	0
268.12929694587365	0.8146387003362179	2	49	2162412.832	100	0.7595247002318501	1	0
268.94393564620987	0.8111024997197092	2	49	2162413.576	93.75	0.6889227996580303	1	0
269.7550381459296	0.817799	2	49	2162414.55	87.5	0.8518957002088428	2	0
270.5728371459991	0.8117957999929786	2	49	2162415.44	81.25	0.9243365000002086	2	0
271.38463294599205	0.8185862000100315	2	49	2162416.207	87.5	0.8800543	2	0
272.2032191460021	0.8135997001081705	2	49	2162416.955	93.75	0.8087911000475287	2	0
273.01681884611025	0.8201565998606384	1	0	0	0	0	0	0
273.8369754459709	0.8148675998672843	2	49	2162418.658	87.5	0.8781276000663638	2	0
274.6518430458382	0.8136102999560535	2	49	2162419.341	100	0.7462309999391437	1	0
275.46545334579423	0.8160884003154933	2	49	2162420.053	87.5	0.6444962001405656	1	0
276.2815417461097	0.8160150996409357	2	49	2162420.855	81.25	0.6304240999743342	1	0
277.09755684575066	0.8180716000497341	2	49	2162421.706	87.5	0.6655113003216684	1	0
277.9156284458004	0.8171569001860917	2	49	2162422.603	100	0.7445426001213491	1	0
278.7327853459865	0.8162214001640677	2	49	2162423.417	100	0.7412434001453221	1	0
279.54900674615055	0.8162704999558628	2	49	2162424.304	93.75	0.8124118996784091	2	0
280.3652772461064	0.8129193000495434	2	49	2162425.149	87.5	0.8409412000328302	2	0
281.17819654615596	0.8181669996120036	2	49	2162425.991	87.5	0.8699846998788416	2	0
281.99636354576796	0.8132770000956953	2	49	2162426.79	87.5	0.8507659	2	0
282.80964054586366	0.8186470000073314	2	49	2162427.527	100	0.7746073002927005	1	0
283.6282875	0.8179255002178252	2	49	2162428.409	93.75	0.8379582	2	0
284.4462130460888	0.8131976998411119	2	49	2162429.187	93.75	0.7981150997802615	2	0
285.2594107459299	0.8168485001660883	2	49	2162430.066	87.5	0.8639223999343812	2	0
286.0762592	0.8153886999934912	2	49	2162430.884	87.5	0.8651918000541627	2	0
286.8916479460895	0.8198373997583985	2	49	2162431.651	93.75	0.8161685	2	0
287.7114853458479	0.8116093999706209	2	49	2162432.494	87.5	0.8398901000618935	2	0
288.5230947458185	0.8158577000722289	2	49	2162433.323	87.5	0.8573736003600061	2	0
289.33895244589075	0.8187871002592146	2	49	2162434.075	93.75	0.7934491001069546	2	0
290.15773954614997	0.8159928997047246	1	0	0	0	0	0	0
290.9737324458547	0.8179577002301812	2	49	2162435.671	100	0.7548815999180079	1	0
291.7916901460849	0.8208245998248458	2	49	2162436.617	87.5	0.8820495000109076	2	0
292.6125147459097	0.8113486999645829	1	0	0	0	0	0	0
293.4238634458743	0.8132211999036372	2	49	2162438.161	93.75	0.7938810000196099	2	0
294.23708464577794	0.8169840001501143	2	49	2162439.031	87.5	0.8507806002162397	2	0
295.05406864592806	0.8203513999469578	2	49	2162439.897	81.25	0.9004747001454234	2	0
295.87442	0.8148636999540031	1	0	0	0	0	0	0
296.6892837	0.8149918001145124	2	49	2162441.617	75	0.985345	2	0
297.5042755459435	0.8138943002559245	1	0	0	0	0	0	0
298.31816984619945	0.8166179996915162	2	49	2162442.55	43.75	0.2885624999180436	1	0
299.13478784589097	0.8173043001443148	2	49	2162443.853	100	0.7751867999322712	1	0
299.9520921460353	0.8135843998752534	2	49	2162444.661	100	0.7656546998769045	1	0
300.76567654591054	0.8207018002867699	2	49	2162445.551	87.5	0.8421435998752713	2	0
301.5863783461973	0.8115042997524142	1	0	0	0	0	0	0
302.3978826459497	0.8181500001810491	1	0	0	0	0	0	0
303.21603264613077	0.8149222997017205	2	49	2162447.649	68.75	0.4899708996526897	1	0
304.0309549458325	0.8167956001125276	2	49	2162448.67	93.75	0.6959509002044797	1	0
304.8477505	0.8160124002024531	2	49	2162449.553	100	0.7626688000746071	1	0
305.6637629461475	0.8166009997949004	2	49	2162450.5	81.25	0.8930064998567104	2	0
306.4803639459424	0.8179851998575032	2	49	2162451.436	68.75	1.0126022999174893	2	0
307.2983491457999	0.8128520003519952	2	49	2162451.997	100	0.7557079000398517	1	0
308.11120114615187	0.8165262998081744	2	49	2162452.831	100	0.7769276998005807	1	0
308.92772744596004	0.8194573000073433	2	49	2162453.772	81.25	0.9012846001423895	2	0
309.7471847459674	0.8141727	2	49	2162454.574	87.5	0.8839721	2	0
310.5613574460149	0.8155971001833677	2	49	2162455.21	93.75	0.7057338999584317	1	0
311.37695454619825	0.8146434999071062	2	49	2162456.167	87.5	0.8471248997375369	2	0
312.19159804610536	0.8184103998355567	2	49	2162456.964	93.75	0.8298408	2	0
313.0100084459409	0.8154647001065314	2	49	2162457.911	75	0.9582334998995066	2	0
313.82547314604744	0.8143992000259459	2	49	2162458.498	93.75	0.7296786997467279	1	0
314.6398723460734	0.8176897997036576	2	49	2162459.35	100	0.7673899000510573	1	0
315.45756214577705	0.8149378001689911	2	49	2162460.45	62.5	1.0495636002160609	2	0
316.27249994594604	0.8230114001780748	2	49	2162461.031	93.75	0.8156877001747489	2	0
317.0955113461241	0.8096549999900162	2	49	2162461.705	87.5	0.6668473999015987	1	0
317.90516634611413	0.8169154999777675	2	49	2162462.642	93.75	0.7940962999127805	2	0
318.7220818460919	0.8179574999958277	2	49	2162463.509	93.75	0.8436646996997297	2	0
319.5400393460877	0.8147233999334276	2	49	2162464.244	100	0.7613145001232624	1	0
320.35476274602115	0.8180303000845015	2	49	2162465.179	87.5	0.8811308997683227	2	0
321.17279304610565	0.8149258000776172	2	49	2162465.775	87.5	0.6597787998616695	1	0
321.98771884618327	0.8152043996378779	2	49	2162466.631	93.75	0.7006723997183144	1	0
322.80292324582115	0.8154497002251446	2	49	2162467.59	87.5	0.8445252003148198	2	0
323.6183729460463	0.8182835001498461	2	49	2162468.314	100	0.7523940000683069	1	0
324.43665644619614	0.8146316	2	49	2162469.261	87.5	0.8817765996791422	2	0
325.25128804612905	0.8156876000575721	2	49	2162470.169	75	0.9753025998361409	2	0
326.0669756461866	0.8207700997591019	1	0	0	0	0	0	0
326.8877457459457	0.8135082	2	49	2162471.556	93.75	0.7256517000496387	1	0
327.70125394593924	0.8196423002518713	2	49	2162472.536	81.25	0.8923524999991059	2	0
328.5208962461911	0.8178992	2	49	2162473.229	100	0.7656057998538017	1	0
329.33879544585943	0.8138854000717402	2	49	2162473.956	87.5	0.6741686002351344	1	0
330.1526808459312	0.8147686002776027	2	49	2162474.837	100	0.7418964998796582	1	0
330.9674494462088	0.8160723997280002	2	49	2162475.697	100	0.7871643	1	0
331.7835218459368	0.8144883001223207	1	0	0	0	0	0	0
332.5980101460591	0.8129595001228154	2	49	2162477.282	100	0.7416599998250604	1	0
333.4109696461819	0.8195595997385681	2	49	2162478.025	87.5	0.6708152997307479	1	0
334.2305292459205	0.8139340002089739	2	49	2162479.006	93.75	0.8331706002354622	2	0
335.04446324612945	0.8178176996298134	2	49	2162479.797	93.75	0.8102456997148693	2	0
335.86228094575927	0.8161365003325045	1	0	0	0	0	0	0
336.67841744609177	0.8174283998087049	2	49	2162481.43	93.75	0.8083114000037313	2	0
337.4958458459005	0.8153333999216557	2	49	2162482.247	93.75	0.8088704003021121	2	0
338.31117924582213	0.8126014000736177	2	49	2162482.998	100	0.7436892003752291	1	0
339.12378064589575	0.8182622999884188	2	49	2162484.277	43.75	1.2105383002199233	2	0
339.94204294588417	0.8155539999715984	2	49	2162484.773	81.25	0.8879315000958741	2	0
340.75759694585577	0.8155702003277838	2	49	2162485.62	81.25	0.9194734003394842	2	0
341.57316714618355	0.8173159998841584	2	49	2162486.324	93.75	0.8079226999543607	2	0
342.3904831460677	0.8155658999457955	2	49	2162487.162	93.75	0.8283425997942686	2	0
343.2060490460135	0.8155743000097573	2	49	2162488.409	37.5	1.259883999824524	2	0
344.02162334602326	0.8179982	2	49	2162488.843	87.5	0.8786108000203967	2	0
344.8396215457469	0.8126377002336085	2	49	2162489.778	68.75	0.9956060000695288	2	0
345.65225924598053	0.8223895002156496	2	49	2162490.38	100	0.7854069001041353	1	0
346.4746487461962	0.8159247	1	0	0	0	0	0	0
347.2905734460801	0.8135907999239862	2	49	2162492.157	81.25	0.9235775000415742	2	0
348.1041642460041	0.8169331001117826	2	49	2162492.941	81.25	0.8939543999731541	2	0
348.92109734611586	0.8142744996584952	2	49	2162493.692	93.75	0.8282379996962845	2	0
349.73537184577435	0.8178566000424325	2	49	2162494.447	100	0.7688301000744104	1	0
350.5532284458168	0.8132653003558517	2	49	2162495.179	87.5	0.6829548003152013	1	0
351.36649374617264	0.8170285	2	49	2162496.112	93.75	0.8027587998658419	2	0
352.1835222458467	0.8186253001913428	2	49	2162496.962	93.75	0.8352127000689507	2	0
353.00214754603803	0.8162361001595855	2	49	2162497.917	75	0.9721117997542024	2	0
353.8183836461976	0.8140716999769211	2	49	2162498.553	93.75	0.7919693998992443	2	0
354.63245534617454	0.818234	2	49	2162499.315	100	0.7398969000205398	1	0
355.4506893460639	0.8242673999629915	2	49	2162500.205	93.75	0.8119280999526381	2	0
356.2749567460269	0.8137980997562408	2	49	2162501.098	87.5	0.8804700998589396	2	0
357.0887548457831	0.8126852000132203	2	49	2162502.118	62.5	1.0865946002304554	2	0
357.90144004579633	0.8155108001083136	1	49	2162502.586	100	0.7419772003777325	1	0
358.71695084590465	0.8168295002542436	2	49	2162503.731	62.5	1.071558200288564	2	0
359.5337803461589	0.810995	2	49	2162504.196	93.75	0.7193832	1	0
360.3447753461078	0.8176730996929109	2	49	2162505.041	100	0.7536716996692121	1	0
361.1624484458007	0.8174128	2	49	2162505.852	100	0.7469659000635147	1	0
361.9798612459563	0.8182577001862228	2	49	2162506.606	87.5	0.6838375	1	0
362.7981189461425	0.8172022998332977	2	49	2162507.489	100	0.7484522997401655	1	0
363.6153212459758	0.8167058	2	49	2162508.306	100	0.7483259001746774	1	0
364.43202704610303	0.8152278997004032	2	49	2162509.179	93.75	0.8039218001067638	2	0
365.24725494580343	0.8108163001015782	2	49	2162510.158	75	0.9683497999794781	2	0
366.0580712	0.8151278	2	49	2162511.054	62.5	1.0526681002229452	2	0
366.8731990461238	0.8178397999145091	2	49	2162511.685	87.5	0.8695205999538302	2	0
367.6910388460383	0.8158698999322951	2	49	2162512.385	100	0.7512389998883009	1	0
368.5069087459706	0.8158367001451552	2	49	2162513.3	87.5	0.8503129999153316	2	0
369.32274544611573	0.8158640996553004	2	49	2162514.229	75	0.9633267000317574	2	0
370.13860954577103	0.8204133003018796	2	49	2162514.894	93.75	0.8122590002603829	2	0
370.9590228460729	0.8156960997730494	2	49	2162515.576	87.5	0.6738486997783184	1	0
371.77471894584596	0.8210841002874076	2	49	2162516.471	100	0.7530731000006199	1	0
372.59580304613337	0.8168302997946739	2	49	2162517.308	100	0.7690603998489678	1	0
373.41263334592804	0.8094342998228967	2	49	2162518.149	93.75	0.7931424998678267	2	0
374.22206764575094	0.8128561000339687	2	49	2162519.061	81.25	0.8957967003807425	2	0
375.0349237457849	0.8175305002368987	2	49	2162519.787	93.75	0.8093195999972522	2	0
375.8524542460218	0.8146119997836649	2	49	2162520.757	75	0.9615621	2	0
376.6670662458055	0.8188442001119256	2	49	2162521.287	87.5	0.6767615000717342	1	0
377.4859104459174	0.8180327001027763	2	49	2162522.182	100	0.7529056002385914	1	0
378.3039431460202	0.8156963000074029	1	49	2162523.002	100	0.7554411	1	0
379.1196394460276	0.8148809000849724	2	49	2162523.797	93.75	0.7344737001694739	1	0
379.93452034611255	0.8171601998619735	2	49	2162524.578	93.75	0.7005604999139905	1	0
380.7516805459745	0.8158915000967681	2	49	2162525.479	93.75	0.7844950999133289	2	0
381.5675720460713	0.8151287999935448	2	49	2162526.268	100	0.7576720998622477	1	0
382.38270084606484	0.8159178998321295	2	49	2162527.055	93.75	0.7293942999094725	1	0
383.19861874589697	0.8187934001907706	2	49	2162527.878	93.75	0.7364961998537183	1	0
384.01741214608774	0.8149123997427523	2	49	2162528.669	93.75	0.7088631000369787	1	0
384.8323245458305	0.8151255	2	49	2162529.608	93.75	0.8329301001504064	2	0
385.64745004614815	0.8158468999899924	2	49	2162530.439	87.5	0.8487776	2	0
386.46329694613814	0.8134339996613562	2	49	2162531.299	81.25	0.8929651998914778	2	0
387.2767309457995	0.8178814	2	49	2162532.005	100	0.7856208002194762	1	0
388.0946123460308	0.8166873999871314	1	0	0	0	0	0	0
388.9112997460179	0.8135857000015676	2	49	2162533.632	100	0.7780733997933567	1	0
389.72488544601947	0.8182286997325718	2	49	2162534.44	100	0.7726884000003338	1	0
390.54311414575204	0.8150739003904164	2	49	2162535.256	100	0.7704812004230917	1	0
391.35818804614246	0.8188672997057438	2	49	2162536.096	93.75	0.7952338	2	0
392.1770553458482	0.8195553999394178	2	49	2162537.073	75	0.9535670001059771	2	0
392.9966107457876	0.8132619000971317	2	49	2162537.813	87.5	0.8731466000899673	2	0
393.80987264588475	0.8140292000025511	2	49	2162538.617	87.5	0.8639389001764357	2	0
394.6239018458873	0.8160745999775827	2	49	2162539.475	81.25	0.9086282001808286	2	0
395.4399764458649	0.8184815999120474	2	49	2162540.2	93.75	0.8174856998957694	2	0
396.25845804577693	0.8150834003463387	2	49	2162541.033	93.75	0.8320414000190794	2	0
397.0735414461233	0.8132552998140454	2	49	2162541.843	93.75	0.8265414997003973	2	0
397.8867967459373	0.8184865000657737	2	49	2162542.689	87.5	0.8598851999267936	2	0
398.7052832460031	0.8164770998992026	2	49	2162543.411	100	0.7633572998456657	1	0
399.5217603459023	0.8147074	2	49	2162544.28	93.75	0.8158933999948204	2	0
400.33646774617955	0.8157344995997846	2	49	2162545.044	100	0.7643234999850392	1	0
401.15220224577934	0.8197643	2	49	2162545.91	93.75	0.8150022001937032	2	0
401.97196654602885	0.8121898998506367	2	49	2162546.825	81.25	0.9102479	2	0
402.7841564458795	0.8170195003040135	2	49	2162547.553	93.75	0.8258306998759508	2	0
403.6011759461835	0.8162875999696553	2	49	2162548.371	93.75	0.8266993998549879	2	0
404.41746354615316	0.8173972996883094	2	49	2162549.144	100	0.7842199997976422	1	0
405.23486084584147	0.8159306002780795	2	49	2162550.023	87.5	0.8449992001987994	2	0
406.05079144611955	0.8154897997155786	2	49	2162551.153	50	1.1594475000165403	2	0
406.8662812458351	0.8154798001050949	2	49	2162551.639	93.75	0.8301725001074374	2	0
407.6817610459402	0.8171589002013206	2	49	2162552.632	68.75	1.0077019999735057	2	0
408.49891994614154	0.8166495999321342	2	49	2162553.34	81.25	0.8980308999307454	2	0
409.3155695460737	0.8163149999454618	1	0	0	0	0	0	0
410.13188454601914	0.8129207999445498	2	49	2162554.628	75	0.5534966001287103	1	0
410.9448053459637	0.8173926002345979	1	0	0	0	0	0	0
411.7621979461983	0.8226320999674499	2	49	2162556.396	87.5	0.6907412000000477	1	0
412.58483004616573	0.8142669	2	49	2162557.221	93.75	0.6931790998205543	1	0
413.39909694576636	0.8110534003935754	2	49	2162558.095	100	0.7530934000387788	1	0
414.21015034615993	0.8182371999137104	2	49	2162558.967	93.75	0.8140325997956097	2	0
415.02838754607365	0.8175522000528872	2	49	2162559.725	100	0.7536685	1	0
415.84593974612653	0.8166986997239292	1	0	0	0	0	0	0
416.66263844585046	0.8116700001992285	2	49	2162561.284	87.5	0.6784286	1	0
417.4743084460497	0.8221685998141766	2	49	2162562.156	93.75	0.7387437000870705	1	0
418.29647704586387	0.8122773002833128	2	49	2162562.94	93.75	0.7007573000155389	1	0
419.1087543461472	0.8166213999502361	2	49	2162563.809	100	0.7574352	1	0
419.9253757460974	0.8154847	2	49	2162564.673	93.75	0.8051903997547925	2	0
420.7408604458906	0.8157414002344012	2	49	2162565.748	62.5	1.064548	2	0
421.5566018	0.8160594999790192	2	49	2162566.371	87.5	0.871901	2	0
422.3726613	0.8182765999808908	2	49	2162567.246	81.25	0.9307256	2	0
423.1909379460849	0.8137346999719739	2	49	2162568.059	81.25	0.9255937999114394	2	0
424.00467264605686	0.8216260997578502	2	49	2162568.903	75	0.9557611998170614	2	0
424.8262987458147	0.8146598003804684	2	49	2162569.887	56.25	1.1176864001899958	2	0
425.6409585461952	0.8155698999762535	2	49	2162570.532	75	0.9484155997633934	2	0
426.45652844617143	0.8179978998377919	2	49	2162571.314	81.25	0.9147802996449172	2	0
427.2745263460092	0.8120408998802304	1	0	0	0	0	0	0
428.08656724588946	0.8165128999389708	2	49	2162572.902	87.5	0.8727655000984669	2	0
428.9030801458284	0.8185935001820326	2	49	2162573.652	93.75	0.8059447002597153	2	0
429.72167364601046	0.8130736001767218	2	49	2162574.468	93.75	0.8040030999109149	2	0
430.5347472461872	0.8158529	2	49	2162575.394	81.25	0.9166999999433756	2	0
431.3506001457572	0.8201185003854334	2	49	2162576.103	93.75	0.8092255000956357	2	0
432.17071864614263	0.8127959999255836	2	49	2162576.926	93.75	0.8128349999897182	2	0
432.9835146460682	0.8184520998038352	2	49	2162577.832	81.25	0.9061611001379788	2	0
433.80196674587205	0.8130747000686824	2	49	2162578.703	75	0.9579091998748481	2	0
434.61504144594073	0.8159554000012577	1	0	0	0	0	0	0
435.4309968	0.8152117999270558	2	49	2162580.123	100	0.7495916001498699	1	0
436.24620864586905	0.8181183999404311	2	49	2162580.982	100	0.7934269001707435	1	0
437.0643270458095	0.8108115000650287	2	49	2162581.822	93.75	0.8146556001156569	2	0
437.8751385458745	0.8227725001052022	2	49	2162582.768	75	0.9505857001058757	2	0
438.6979110459797	0.8152386997826397	1	0	0	0	0	0	0
439.51314974576235	0.8162463000044227	2	49	2162584.139	87.5	0.6825939	1	0
440.32939604576677	0.8160102004185319	2	49	2162585.062	93.75	0.7894449001178145	2	0
441.1454062461853	0.8139921999536455	1	49	2162585.767	87.5	0.6786252995952964	1	0
441.95939844613895	0.8191028996370733	2	49	2162586.608	93.75	0.7058905996382236	1	0
442.7785013	0.8165075001306832	2	49	2162587.556	93.75	0.8344535	2	0
443.5950088459067	0.8143871002830565	1	49	2162588.285	100	0.7469549998641014	1	0
444.40939594618976	0.8154502999968827	2	49	2162589.239	87.5	0.8866653996519744	2	0
445.22484624618664	0.8171076998114586	1	0	0	0	0	0	0
446.0419539459981	0.8162067998200655	2	49	2162590.741	100	0.7560662999749184	1	0
446.85816074581817	0.8171232999302447	2	49	2162591.575	100	0.7739168000407517	1	0
447.6752840457484	0.8127294001169503	2	49	2162592.363	100	0.7447656001895666	1	0
448.48801344586536	0.823359	2	49	2162593.167	93.75	0.7361188000068069	1	0
449.31137244589627	0.8161013000644743	2	49	2162594.045	93.75	0.7906724000349641	2	0
450.12747374596074	0.8198759998194873	2	49	2162594.931	87.5	0.8606654000468552	2	0
450.94734974578023	0.8175162002444267	2	49	2162595.649	100	0.7591399000957608	1	0
451.76486594602466	0.8188435998745263	2	49	2162596.428	93.75	0.7206140998750925	1	0
452.5837095458992	0.8210396002978086	2	49	2162597.339	93.75	0.8124629002995789	2	0
453.4047491	0.8153963	1	49	2162598.166	93.75	0.8185384999960661	2	0
454.2201454457827	0.8203397002071142	1	49	2162598.834	87.5	0.6710896003060043	1	0
455.0404851459898	0.8187016001902521	2	49	2162599.771	100	0.7879153001122177	1	0
455.85918674618006	0.8121615997515619	2	49	2162600.541	100	0.7390654999762774	1	0
456.6713483459316	0.8150281999260187	2	49	2162601.272	87.5	0.6576411998830736	1	0
457.48637654585764	0.8133129999041557	2	49	2162602.213	100	0.7838865001685917	1	0
458.2996895457618	0.8059513000771403	1	0	0	0	0	0	0
459.10564084583893	0.8089016	1	0	0	0	0	0	0
459.91454244591296	0.8167451000772417	1	0	0	0	0	0	0
460.7312875459902	0.8145459000952542	2	49	2162605.462	93.75	0.7881868998520076	2	0
461.54583344608545	0.8200921998359263	2	49	2162606.202	93.75	0.7135840998962522	1	0
462.3659256459214	0.8221213002689183	2	49	2162607.338	68.75	1.0297298999503255	2	0
463.1880469461903	0.8097196999005973	2	49	2162607.872	100	0.7408827999606729	1	0
463.9977666460909	0.8165774997323751	2	49	2162608.785	87.5	0.8447708999738097	2	0
464.81434414582327	0.8207328002899885	2	49	2162609.652	81.25	0.8951886002905667	2	0
465.63507694611326	0.8178030997514725	2	49	2162610.391	93.75	0.8129074000753462	2	0
466.45288004586473	0.8166817999444902	2	49	2162611.2	93.75	0.8039685003459454	2	0
467.2695618458092	0.8145258002914488	2	49	2162612.008	93.75	0.7960377000272274	2	0
468.08408764610067	0.8136229999363422	2	49	2162612.973	75	0.9464400997385383	2	0
468.8977106	0.8154545999132097	2	49	2162613.527	87.5	0.6868825000710785	1	0
469.7131652459502	0.8118830001913011	2	49	2162614.541	81.25	0.8854304002597928	2	0
470.5250482461415	0.8194768996909261	2	49	2162615.128	87.5	0.6597146997228265	1	0
471.34452514583245	0.8146816999651492	2	49	2162616.086	93.75	0.7988653001375496	2	0
472.1592068457976	0.8145171003416181	2	49	2162616.911	93.75	0.8091435004025698	2	0
472.9737239461392	0.8180821998976171	2	49	2162617.776	87.5	0.8593953000381589	2	0
473.79180614603683	0.8151752999983728	2	49	2162618.824	62.5	1.0889344001188874	2	0
474.6069814460352	0.8153595998883247	2	49	2162619.52	75	0.9707285999320447	2	0
475.42234104592353	0.8181250002235174	2	49	2162620.378	68.75	1.0130195999518037	2	0
476.24046604614705	0.8224673997610807	2	49	2162621.35	50	1.1664672996848822	2	0
477.06293344590813	0.8124472	2	49	2162621.951	75	0.9450196	2	0
477.87538064597175	0.8126603001728654	2	49	2162622.842	68.75	1.0235833	2	0
478.6880409461446	0.8141355998814106	2	49	2162623.587	75	0.9559228997677565	2	0
479.5021765	0.8185292999260128	2	49	2162624.432	75	0.9867774001322687	2	0
480.32070584595203	0.8134908000938594	2	49	2162625.477	43.75	1.2135507999919355	2	0
481.1341966460459	0.8253230000846088	2	49	2162625.951	87.5	0.8741108998656273	2	0
481.9595196461305	0.8152643996290863	2	49	2162626.664	100	0.7614796999841928	1	0
482.7747840457596	0.8132843002676964	2	49	2162627.526	93.75	0.8089279001578689	2	0
483.5880683460273	0.8175399997271597	2	49	2162628.458	81.25	0.9270012001506984	2	0
484.40560834575444	0.8118971004150808	2	49	2162629.13	100	0.7814301000908017	1	0
485.2175054461695	0.8136607999913394	2	49	2162629.931	100	0.7707591997459531	1	0
486.03116624616086	0.8182894997298717	2	49	2162630.699	93.75	0.7252059	1	0
486.84945574589074	0.8160586999729276	2	49	2162631.537	100	0.7449798001907766	1	0
487.66551444586366	0.8174009001813829	2	49	2162632.416	93.75	0.8080843999050558	2	0
488.48291534604505	0.8161125001497567	2	49	2162633.142	93.75	0.7162779998034239	1	0
489.2990278461948	0.8141297996044159	2	49	2162633.949	93.75	0.7069035000167787	1	0
490.1131576457992	0.8194319000467658	2	49	2162634.888	93.75	0.8320864	2	0
490.9325895	0.8153509	2	49	2162635.601	93.75	0.7256998000666499	1	0
491.7479404457845	0.8196194004267454	2	49	2162636.652	75	0.9612710000947118	2	0
492.5675598462112	0.8095619999803603	2	49	2162637.432	81.25	0.9219587999396026	2	0
493.3771218461916	0.8180152997374535	2	49	2162638.191	87.5	0.8712206999771297	2	0
494.19513714592904	0.8166199000552297	2	49	2162639.064	81.25	0.9264207002706826	2	0
495.01175704598427	0.8154894998297095	2	49	2162639.683	93.75	0.7288421001285315	1	0
495.8272465	0.8192540002055466	2	49	2162640.648	87.5	0.8782804002985358	2	0
496.6465005460195	0.8112033000215888	2	49	2162641.755	50	1.1652369000948966	2	0
497.4577038460411	0.8226613998413086	2	49	2162642.255	87.5	0.8548500998876989	2	0
498.2803652458824	0.8145794002339244	2	49	2162642.866	87.5	0.6430556001141667	1	0
499.09494464611635	0.8210574998520315	2	49	2162643.805	100	0.7677115998230875	1	0
499.9160021459684	0.8165131001733243	2	49	2162644.659	93.75	0.8006691997870803	2	0
500.7325152461417	0.8150142999365926	2	49	2162645.495	93.75	0.8201051997020841	2	0
501.5475295460783	0.8089914000593126	2	49	2162646.379	81.25	0.8890621997416019	2	0
502.3565209461376	0.8152536	2	49	2162647.194	81.25	0.8951778998598456	2	0
503.1717745461501	0.8159928000532091	2	49	2162647.955	87.5	0.8408556999638677	2	0
503.9877673462033	0.8177920999005437	2	49	2162648.757	93.75	0.8263950999826193	2	0
504.80555944610387	0.8147847	2	49	2162649.591	87.5	0.8430838	2	0
505.6203441461548	0.8148791999556124	2	49	2162650.374	93.75	0.8106728000566363	2	0
506.43522334611043	0.8177513997070491	2	49	2162651.297	81.25	0.9186559999361634	2	0
507.2529747458175	0.8150790999643505	2	49	2162652.46	37.5	1.2639077003113925	2	0
508.06805384578183	0.8168944003991783	1	0	0	0	0	0	0
508.8849482	0.8159247	2	49	2162653.614	100	0.7859121998772025	1	0
509.7008729460649	0.8178975000046194	1	49	2162654.349	93.75	0.7056089	1	0
510.51877044606954	0.8156737997196615	2	49	2162655.373	81.25	0.9110726998187602	2	0
511.3344442457892	n/a	0	0	0	0	0	0	0