onset	duration	offset	trial	item	RT	response
50.52420000000001	5.493983700000193	56.0181837000002	1	att	3.11826689999907	7.0
56.01834069999881	4.394503700001195	60.412844400000004	1	past	2.61727440000141	5.0
60.41304920000061	2.2509141999998974	62.663963400000505	1	fut	1.41590459999861	5.0
62.6641301000002	2.392605199998812	65.05673529999902	1	self	1.1334224000002	8.0
65.0569154999996	2.5584606999999977	67.6153761999996	1	ppl	1.00542040000073	4.0
67.6155108000005	3.413680099998601	71.0291908999991	1	arou	2.15114189999986	3.0
71.029369	3.407328800000002	74.4366978	1	aff	1.35099330000048	6.0
74.4368388000004	3.1352721999992923	77.5721109999997	1	eng	1.86124319999908	7.0
77.5722900000003	2.9791955999990023	80.5514855999993	1	mvmt	1.4100268000002	8.0
80.5516764000005	5.4676176999983	86.0192940999988	1	delib	4.57978349999939	7.0
86.0196171999998	3.712146599999002	89.7317637999988	1	image	3.32783480000035	5.0
89.73192209999979	3.026493000000002	92.7584150999998	1	ling	1.42458970000007	4.0
92.7585486999998	2.661974200000003	95.42052289999981	1	conf	1.43956669999898	8.0
155.2583336999998	4.462489699998997	159.7208233999988	2	att	1.59409450000021	9.0
159.72096950000082	5.270698399998992	164.9916678999998	2	past	3.41803590000018	5.0
164.9918366999988	3.4301123000010136	168.4219489999998	2	fut	1.20876970000063	6.0
168.42222709999982	3.2113052999999923	171.6335323999998	2	self	1.72920169999998	8.0
171.6337094999998	3.1969953999999916	174.8307048999998	2	ppl	1.13520199999948	3.0
174.83084359999881	2.915478700000989	177.7463222999998	2	arou	1.53450650000013	2.0
177.7465381999998	6.4278790000000186	184.17441719999982	2	aff	1.17224410000017	5.0
184.1746348999988	3.2842351000020074	187.45887000000081	2	eng	0.947390400000586	6.0
187.4590723000008	3.6116260999980057	191.0706983999988	2	mvmt	1.51771480000025	8.0
191.0708580999998	3.214897900000011	194.28575599999982	2	delib	1.80237940000006	4.0
194.2859236999998	2.9104315999989865	197.1963552999988	2	image	1.06061840000075	4.0
197.1965729999998	2.6367520000000013	199.8333249999998	2	ling	0.859288699999524	7.0
199.83353720000082	2.3142237999999793	202.1477610000008	2	conf	1.1561731999991	8.0
253.0595278999988	8.053497400000992	261.1130252999998	3	att	2.24957940000058	7.0
261.1133760999998	3.691744099998971	264.8051201999988	3	past	0.978308799998558	2.0
264.8053190999998	3.729266399999972	268.53458549999976	3	fut	2.66282030000002	7.0
268.5348484999998	3.1901227000000176	271.7249711999998	3	self	1.22414779999963	7.0
271.7251552999988	3.7854985000009833	275.5106537999998	3	ppl	0.857041500001287	7.0
275.5108557999998	2.8694391000000223	278.3802948999998	3	arou	1.22888570000032	7.0
278.3804424999998	2.5038874999989957	280.8843299999988	3	aff	0.986451400000078	7.0
280.88455619999877	3.33058410000001	284.2151402999988	3	eng	2.98041069999999	5.0
284.21535679999977	4.461181699999997	288.67653849999977	3	mvmt	1.64481560000058	5.0
288.6767053000008	2.7381753999999887	291.41488070000077	3	delib	1.20779049999874	9.0
291.41510889999876	4.932569900000033	296.3476787999988	3	image	1.43204740000147	8.0
296.3479602999998	2.3334732000000145	298.6814334999998	3	ling	0.86901620000026	3.0
298.6817238000008	2.577162199999009	301.2588859999998	3	conf	1.24591409999994	9.0
354.17122249999977	5.279008599999997	359.45023109999977	4	att	1.74608790000093	4.0
359.4506645999988	4.328794700000969	363.77945929999976	4	past	1.09424240000044	3.0
363.77967039999976	1.832128600000999	365.61179900000076	4	fut	0.833833400000003	3.0
365.61199859999977	2.8260709999990468	368.4380695999988	4	self	1.7238995000007	6.0
368.4382734999998	3.5636654999999564	372.00193899999977	4	ppl	0.71330289999969	3.0
372.00215269999876	2.325613200001044	374.3277658999998	4	arou	1.02054710000084	5.0
374.32798059999976	2.4753827000000115	376.8033632999998	4	aff	1.18667679999999	7.0
376.8036973999988	4.067068500001028	380.8707658999998	4	eng	1.19946830000117	6.0
380.87093559999977	6.629868799999031	387.5008043999988	4	mvmt	1.72801160000017	4.0
387.50102709999976	2.6471285999990073	390.14815569999877	4	delib	1.48073289999957	7.0
390.1483573999998	3.653015700000026	393.8013730999998	4	image	1.67153780000081	2.0
393.8015890999998	3.015065400000992	396.81665450000077	4	ling	1.23229750000064	4.0
396.81687409999876	3.2790733000010164	400.0959473999998	4	conf	1.48150549999991	8.0
450.9717314999998	4.45136389999999	455.4230953999998	5	att	1.31723979999879	7.0
455.4238057999998	3.435311799998999	458.8591175999988	5	past	0.803144600000451	7.0
458.8598823999998	3.797549699999024	462.6574320999988	5	fut	1.15295659999902	3.0
462.6581918999998	2.4631496000009747	465.12134150000077	5	self	1.3579850999995	8.0
465.1221198000008	3.509401899998977	468.6315216999998	5	ppl	1.4801367	4.0
468.63219259999977	4.339406300000007	472.9715988999998	5	arou	1.72611399999914	1.0
472.9725610999998	3.183440200000007	476.1560012999998	5	aff	1.6391980999997	6.0
476.15673129999976	3.834495900001002	479.99122720000076	5	eng	2.90683059999901	7.0
479.99209189999976	4.884768100000997	484.87686000000076	5	mvmt	1.0665769999996	4.0
484.8775251999998	3.1800854999999615	488.05761069999977	5	delib	1.49366689999988	4.0
488.0585997999988	2.7883685000020364	490.8469683000008	5	image	1.65723140000046	3.0
490.8481059999998	2.9364086999989922	493.7845146999988	5	ling	1.14206220000051	7.0
493.7855201000008	3.311340099999029	497.0968601999998	5	conf	1.48710449999999	7.0
552.9758583000008	5.810884200000032	558.7867425000009	6	att	2.11711309999919	4.0
558.7867562999999	4.126281199998971	562.9130374999988	6	past	1.79951259999871	2.0
562.9130683000009	2.482613299997979	565.3956815999989	6	fut	1.13819429999967	2.0
565.3957023000008	3.2601925000000165	568.6558948000009	6	self	1.58746059999976	6.0
568.6559113999998	2.53724479999903	571.1931561999988	6	ppl	1.06009760000052	2.0
571.1931733000008	4.487576899998999	575.6807501999998	6	arou	1.5318673999991	6.0
575.6807669999998	2.9614736999990328	578.6422406999989	6	aff	1.64450930000021	8.0
578.6422586999998	5.239979300000982	583.8822380000008	6	eng	1.70249700000022	2.0
583.8822755999988	3.6928253000010045	587.5751008999998	6	mvmt	2.01265290000083	7.0
587.5751208000008	4.041932199998996	591.6170529999998	6	delib	1.83028479999848	8.0
591.6170700000008	5.603836200000046	597.2209062000009	6	image	1.84850379999989	4.0
597.2209322999988	4.3587187000009635	601.5796509999998	6	ling	1.19087440000112	3.0
601.5796701999989	3.0003704999999172	604.5800406999988	6	conf	1.44782040000064	8.0
